response.keys,response.corr,response.rt,trials.thisRepN,trials.thisTrialN,trials.thisN,trials.thisIndex,trials.ran,TrialName,Cond,Event,CorrAns,participant,session,date,expName,psychopyVersion,OS,frameRate,PROLIFIC_PID,STUDY_ID,SESSION_ID
j,0,7.0253,0,0,0,0,1,resources/Slide1.bmp,ins,instruction_g,,401641,001,2023-06-09_12h52.55.559,drops_juice,2023.1.2,Win32,60.04924038,6482d9e3143038c22fabd9bf,{{%STUDY_ID%}},{{%SESSION_ID%}}
f,0,0.5907,0,1,1,1,1,resources/Slide2.bmp,ins,practice_start,,401641,001,2023-06-09_12h52.55.559,drops_juice,2023.1.2,Win32,60.04924038,6482d9e3143038c22fabd9bf,{{%STUDY_ID%}},{{%SESSION_ID%}}
j,1,0.385,0,2,2,2,1,resources/Slide3.BMP,1DR,pract1,j,401641,001,2023-06-09_12h52.55.559,drops_juice,2023.1.2,Win32,60.04924038,6482d9e3143038c22fabd9bf,{{%STUDY_ID%}},{{%SESSION_ID%}}
j,0,0.3262,0,3,3,3,1,resources/Slide4.BMP,2IR,pract2,f,401641,001,2023-06-09_12h52.55.559,drops_juice,2023.1.2,Win32,60.04924038,6482d9e3143038c22fabd9bf,{{%STUDY_ID%}},{{%SESSION_ID%}}
j,0,0.239,0,4,4,4,1,resources/Slide5.BMP,8IEU,pract3,space,401641,001,2023-06-09_12h52.55.559,drops_juice,2023.1.2,Win32,60.04924038,6482d9e3143038c22fabd9bf,{{%STUDY_ID%}},{{%SESSION_ID%}}
j,1,0.173,0,5,5,5,1,resources/Slide6.BMP,3COE,pract4,j,401641,001,2023-06-09_12h52.55.559,drops_juice,2023.1.2,Win32,60.04924038,6482d9e3143038c22fabd9bf,{{%STUDY_ID%}},{{%SESSION_ID%}}
j,1,0.1363,0,6,6,6,1,resources/Slide7.BMP,4COU,pract5,j,401641,001,2023-06-09_12h52.55.559,drops_juice,2023.1.2,Win32,60.04924038,6482d9e3143038c22fabd9bf,{{%STUDY_ID%}},{{%SESSION_ID%}}
j,0,0.038,0,7,7,7,1,resources/Slide8.BMP,5IIE,pract6,f,401641,001,2023-06-09_12h52.55.559,drops_juice,2023.1.2,Win32,60.04924038,6482d9e3143038c22fabd9bf,{{%STUDY_ID%}},{{%SESSION_ID%}}
j,0,0.0009,0,8,8,8,1,resources/Slide9.BMP,6IIU,pract7,f,401641,001,2023-06-09_12h52.55.559,drops_juice,2023.1.2,Win32,60.04924038,6482d9e3143038c22fabd9bf,{{%STUDY_ID%}},{{%SESSION_ID%}}
j,0,0.0014,0,9,9,9,1,resources/Slide10.BMP,7IEE,pract8,space,401641,001,2023-06-09_12h52.55.559,drops_juice,2023.1.2,Win32,60.04924038,6482d9e3143038c22fabd9bf,{{%STUDY_ID%}},{{%SESSION_ID%}}
j,0,0.0689,0,10,10,10,1,resources/Slide11.bmp,ins,test_start,,401641,001,2023-06-09_12h52.55.559,drops_juice,2023.1.2,Win32,60.04924038,6482d9e3143038c22fabd9bf,{{%STUDY_ID%}},{{%SESSION_ID%}}
j,1,0.3104,0,11,11,11,1,resources/Slide3.BMP,1DR,dummy1,j,401641,001,2023-06-09_12h52.55.559,drops_juice,2023.1.2,Win32,60.04924038,6482d9e3143038c22fabd9bf,{{%STUDY_ID%}},{{%SESSION_ID%}}
j,0,0.0141,0,12,12,12,1,resources/Slide10.BMP,7IEE,dummy2,space,401641,001,2023-06-09_12h52.55.559,drops_juice,2023.1.2,Win32,60.04924038,6482d9e3143038c22fabd9bf,{{%STUDY_ID%}},{{%SESSION_ID%}}
j,0,0.0188,0,13,13,13,1,resources/Slide36.BMP,3COE02,test01,f,401641,001,2023-06-09_12h52.55.559,drops_juice,2023.1.2,Win32,60.04924038,6482d9e3143038c22fabd9bf,{{%STUDY_ID%}},{{%SESSION_ID%}}
j,0,0.0598,0,14,14,14,1,resources/Slide80.BMP,7IEE02,test02,space,401641,001,2023-06-09_12h52.55.559,drops_juice,2023.1.2,Win32,60.04924038,6482d9e3143038c22fabd9bf,{{%STUDY_ID%}},{{%SESSION_ID%}}
j,0,0.0286,0,15,15,15,1,resources/Slide55.BMP,4COU10,test03,f,401641,001,2023-06-09_12h52.55.559,drops_juice,2023.1.2,Win32,60.04924038,6482d9e3143038c22fabd9bf,{{%STUDY_ID%}},{{%SESSION_ID%}}
j,1,0.1048,0,16,16,16,1,resources/Slide77.BMP,6IIU10,test04,j,401641,001,2023-06-09_12h52.55.559,drops_juice,2023.1.2,Win32,60.04924038,6482d9e3143038c22fabd9bf,{{%STUDY_ID%}},{{%SESSION_ID%}}
j,1,0.0069,0,17,17,17,1,resources/Slide33.BMP,2IR10,test05,j,401641,001,2023-06-09_12h52.55.559,drops_juice,2023.1.2,Win32,60.04924038,6482d9e3143038c22fabd9bf,{{%STUDY_ID%}},{{%SESSION_ID%}}
j,0,0.0245,0,18,18,18,1,resources/Slide90.BMP,8IEU01,test06,space,401641,001,2023-06-09_12h52.55.559,drops_juice,2023.1.2,Win32,60.04924038,6482d9e3143038c22fabd9bf,{{%STUDY_ID%}},{{%SESSION_ID%}}
j,0,0.0117,0,19,19,19,1,resources/Slide14.BMP,1DR02,test07,f,401641,001,2023-06-09_12h52.55.559,drops_juice,2023.1.2,Win32,60.04924038,6482d9e3143038c22fabd9bf,{{%STUDY_ID%}},{{%SESSION_ID%}}
j,0,0.0042,0,20,20,20,1,resources/Slide88.BMP,7IEE10,test08,space,401641,001,2023-06-09_12h52.55.559,drops_juice,2023.1.2,Win32,60.04924038,6482d9e3143038c22fabd9bf,{{%STUDY_ID%}},{{%SESSION_ID%}}
j,0,0.186,0,21,21,21,1,resources/Slide32.BMP,2IR09,test09,f,401641,001,2023-06-09_12h52.55.559,drops_juice,2023.1.2,Win32,60.04924038,6482d9e3143038c22fabd9bf,{{%STUDY_ID%}},{{%SESSION_ID%}}
j,0,0.0982,0,22,22,22,1,resources/Slide68.BMP,6IIU01,test10,f,401641,001,2023-06-09_12h52.55.559,drops_juice,2023.1.2,Win32,60.04924038,6482d9e3143038c22fabd9bf,{{%STUDY_ID%}},{{%SESSION_ID%}}
j,1,0.0748,0,23,23,23,1,resources/Slide35.BMP,3COE01,test11,j,401641,001,2023-06-09_12h52.55.559,drops_juice,2023.1.2,Win32,60.04924038,6482d9e3143038c22fabd9bf,{{%STUDY_ID%}},{{%SESSION_ID%}}
j,0,0.0104,0,24,24,24,1,resources/Slide100.BMP,8IEU11,test12,space,401641,001,2023-06-09_12h52.55.559,drops_juice,2023.1.2,Win32,60.04924038,6482d9e3143038c22fabd9bf,{{%STUDY_ID%}},{{%SESSION_ID%}}
j,1,0.0007,0,25,25,25,1,resources/Slide46.BMP,4COU01,test13,j,401641,001,2023-06-09_12h52.55.559,drops_juice,2023.1.2,Win32,60.04924038,6482d9e3143038c22fabd9bf,{{%STUDY_ID%}},{{%SESSION_ID%}}
j,0,0.2058,0,26,26,26,1,resources/Slide101.BMP,8IEU12,test14,space,401641,001,2023-06-09_12h52.55.559,drops_juice,2023.1.2,Win32,60.04924038,6482d9e3143038c22fabd9bf,{{%STUDY_ID%}},{{%SESSION_ID%}}
j,0,0.1027,0,27,27,27,1,resources/Slide79.BMP,7IEE01,test15,space,401641,001,2023-06-09_12h52.55.559,drops_juice,2023.1.2,Win32,60.04924038,6482d9e3143038c22fabd9bf,{{%STUDY_ID%}},{{%SESSION_ID%}}
j,1,0.1038,0,28,28,28,1,resources/Slide21.BMP,1DR09,test16,j,401641,001,2023-06-09_12h52.55.559,drops_juice,2023.1.2,Win32,60.04924038,6482d9e3143038c22fabd9bf,{{%STUDY_ID%}},{{%SESSION_ID%}}
j,0,0.0207,0,29,29,29,1,resources/Slide76.BMP,6IIU09,test17,f,401641,001,2023-06-09_12h52.55.559,drops_juice,2023.1.2,Win32,60.04924038,6482d9e3143038c22fabd9bf,{{%STUDY_ID%}},{{%SESSION_ID%}}
j,0,0.0455,0,30,30,30,1,resources/Slide44.BMP,3COE10,test18,f,401641,001,2023-06-09_12h52.55.559,drops_juice,2023.1.2,Win32,60.04924038,6482d9e3143038c22fabd9bf,{{%STUDY_ID%}},{{%SESSION_ID%}}
j,1,0.0722,0,31,31,31,1,resources/Slide57.BMP,5IIE01,test19,j,401641,001,2023-06-09_12h52.55.559,drops_juice,2023.1.2,Win32,60.04924038,6482d9e3143038c22fabd9bf,{{%STUDY_ID%}},{{%SESSION_ID%}}
j,1,0.0358,0,32,32,32,1,resources/Slide25.BMP,2IR02,test20,j,401641,001,2023-06-09_12h52.55.559,drops_juice,2023.1.2,Win32,60.04924038,6482d9e3143038c22fabd9bf,{{%STUDY_ID%}},{{%SESSION_ID%}}
j,0,0.0239,0,33,33,33,1,resources/Slide87.BMP,7IEE09,test21,space,401641,001,2023-06-09_12h52.55.559,drops_juice,2023.1.2,Win32,60.04924038,6482d9e3143038c22fabd9bf,{{%STUDY_ID%}},{{%SESSION_ID%}}
j,0,0.0463,0,34,34,34,1,resources/Slide66.BMP,5IIE10,test22,f,401641,001,2023-06-09_12h52.55.559,drops_juice,2023.1.2,Win32,60.04924038,6482d9e3143038c22fabd9bf,{{%STUDY_ID%}},{{%SESSION_ID%}}
j,0,0.0462,0,35,35,35,1,resources/Slide47.BMP,4COU02,test23,f,401641,001,2023-06-09_12h52.55.559,drops_juice,2023.1.2,Win32,60.04924038,6482d9e3143038c22fabd9bf,{{%STUDY_ID%}},{{%SESSION_ID%}}
j,1,0.0583,0,36,36,36,1,resources/Slide43.BMP,3COE09,test24,j,401641,001,2023-06-09_12h52.55.559,drops_juice,2023.1.2,Win32,60.04924038,6482d9e3143038c22fabd9bf,{{%STUDY_ID%}},{{%SESSION_ID%}}
j,1,0.0807,0,37,37,37,1,resources/Slide65.BMP,5IIE09,test25,j,401641,001,2023-06-09_12h52.55.559,drops_juice,2023.1.2,Win32,60.04924038,6482d9e3143038c22fabd9bf,{{%STUDY_ID%}},{{%SESSION_ID%}}
j,0,0.0984,0,38,38,38,1,resources/Slide24.BMP,2IR01,test26,f,401641,001,2023-06-09_12h52.55.559,drops_juice,2023.1.2,Win32,60.04924038,6482d9e3143038c22fabd9bf,{{%STUDY_ID%}},{{%SESSION_ID%}}
j,0,0.0006,0,39,39,39,1,resources/Slide22.BMP,1DR10,test27,f,401641,001,2023-06-09_12h52.55.559,drops_juice,2023.1.2,Win32,60.04924038,6482d9e3143038c22fabd9bf,{{%STUDY_ID%}},{{%SESSION_ID%}}
j,1,0.2991,0,40,40,40,1,resources/Slide69.BMP,6IIU02,test28,j,401641,001,2023-06-09_12h52.55.559,drops_juice,2023.1.2,Win32,60.04924038,6482d9e3143038c22fabd9bf,{{%STUDY_ID%}},{{%SESSION_ID%}}
j,0,0.125,0,41,41,41,1,resources/Slide91.BMP,8IEU02,test29,space,401641,001,2023-06-09_12h52.55.559,drops_juice,2023.1.2,Win32,60.04924038,6482d9e3143038c22fabd9bf,{{%STUDY_ID%}},{{%SESSION_ID%}}
j,1,0.1294,0,42,42,42,1,resources/Slide13.BMP,1DR01,test30,j,401641,001,2023-06-09_12h52.55.559,drops_juice,2023.1.2,Win32,60.04924038,6482d9e3143038c22fabd9bf,{{%STUDY_ID%}},{{%SESSION_ID%}}
j,1,0.054,0,43,43,43,1,resources/Slide54.BMP,4COU09,test31,j,401641,001,2023-06-09_12h52.55.559,drops_juice,2023.1.2,Win32,60.04924038,6482d9e3143038c22fabd9bf,{{%STUDY_ID%}},{{%SESSION_ID%}}
j,0,0.0711,0,44,44,44,1,resources/Slide58.BMP,5IIE02,test32,f,401641,001,2023-06-09_12h52.55.559,drops_juice,2023.1.2,Win32,60.04924038,6482d9e3143038c22fabd9bf,{{%STUDY_ID%}},{{%SESSION_ID%}}
j,1,0.1222,0,45,45,45,1,resources/Slide41.BMP,3COE07,test33,j,401641,001,2023-06-09_12h52.55.559,drops_juice,2023.1.2,Win32,60.04924038,6482d9e3143038c22fabd9bf,{{%STUDY_ID%}},{{%SESSION_ID%}}
j,0,0.1065,0,46,46,46,1,resources/Slide18.BMP,1DR06,test34,f,401641,001,2023-06-09_12h52.55.559,drops_juice,2023.1.2,Win32,60.04924038,6482d9e3143038c22fabd9bf,{{%STUDY_ID%}},{{%SESSION_ID%}}
j,1,0.0933,0,47,47,47,1,resources/Slide73.BMP,6IIU06,test35,j,401641,001,2023-06-09_12h52.55.559,drops_juice,2023.1.2,Win32,60.04924038,6482d9e3143038c22fabd9bf,{{%STUDY_ID%}},{{%SESSION_ID%}}
j,0,0.2087,0,48,48,48,1,resources/Slide26.BMP,2IR03,test36,f,401641,001,2023-06-09_12h52.55.559,drops_juice,2023.1.2,Win32,60.04924038,6482d9e3143038c22fabd9bf,{{%STUDY_ID%}},{{%SESSION_ID%}}
j,0,0.1099,0,49,49,49,1,resources/Slide92.BMP,8IEU03,test37,space,401641,001,2023-06-09_12h52.55.559,drops_juice,2023.1.2,Win32,60.04924038,6482d9e3143038c22fabd9bf,{{%STUDY_ID%}},{{%SESSION_ID%}}
j,0,0.1244,0,50,50,50,1,resources/Slide40.BMP,3COE06,test38,f,401641,001,2023-06-09_12h52.55.559,drops_juice,2023.1.2,Win32,60.04924038,6482d9e3143038c22fabd9bf,{{%STUDY_ID%}},{{%SESSION_ID%}}
j,1,0.0887,0,51,51,51,1,resources/Slide71.BMP,6IIU04,test39,j,401641,001,2023-06-09_12h52.55.559,drops_juice,2023.1.2,Win32,60.04924038,6482d9e3143038c22fabd9bf,{{%STUDY_ID%}},{{%SESSION_ID%}}
j,0,0.1281,0,52,52,52,1,resources/Slide28.BMP,2IR05,test40,f,401641,001,2023-06-09_12h52.55.559,drops_juice,2023.1.2,Win32,60.04924038,6482d9e3143038c22fabd9bf,{{%STUDY_ID%}},{{%SESSION_ID%}}
j,0,0.1122,0,53,53,53,1,resources/Slide38.BMP,3COE04,test41,f,401641,001,2023-06-09_12h52.55.559,drops_juice,2023.1.2,Win32,60.04924038,6482d9e3143038c22fabd9bf,{{%STUDY_ID%}},{{%SESSION_ID%}}
j,0,0.1368,0,54,54,54,1,resources/Slide94.BMP,8IEU05,test42,space,401641,001,2023-06-09_12h52.55.559,drops_juice,2023.1.2,Win32,60.04924038,6482d9e3143038c22fabd9bf,{{%STUDY_ID%}},{{%SESSION_ID%}}
j,1,0.2395,0,55,55,55,1,resources/Slide29.BMP,2IR06,test43,j,401641,001,2023-06-09_12h52.55.559,drops_juice,2023.1.2,Win32,60.04924038,6482d9e3143038c22fabd9bf,{{%STUDY_ID%}},{{%SESSION_ID%}}
j,0,0.1467,0,56,56,56,1,resources/Slide60.BMP,5IIE04,test44,f,401641,001,2023-06-09_12h52.55.559,drops_juice,2023.1.2,Win32,60.04924038,6482d9e3143038c22fabd9bf,{{%STUDY_ID%}},{{%SESSION_ID%}}
j,0,0.1264,0,57,57,57,1,resources/Slide70.BMP,6IIU03,test45,f,401641,001,2023-06-09_12h52.55.559,drops_juice,2023.1.2,Win32,60.04924038,6482d9e3143038c22fabd9bf,{{%STUDY_ID%}},{{%SESSION_ID%}}
j,1,0.1898,0,58,58,58,1,resources/Slide17.BMP,1DR05,test46,j,401641,001,2023-06-09_12h52.55.559,drops_juice,2023.1.2,Win32,60.04924038,6482d9e3143038c22fabd9bf,{{%STUDY_ID%}},{{%SESSION_ID%}}
j,0,0.1976,0,59,59,59,1,resources/Slide95.BMP,8IEU06,test47,space,401641,001,2023-06-09_12h52.55.559,drops_juice,2023.1.2,Win32,60.04924038,6482d9e3143038c22fabd9bf,{{%STUDY_ID%}},{{%SESSION_ID%}}
j,1,0.1537,0,60,60,60,1,resources/Slide37.BMP,3COE03,test48,j,401641,001,2023-06-09_12h52.55.559,drops_juice,2023.1.2,Win32,60.04924038,6482d9e3143038c22fabd9bf,{{%STUDY_ID%}},{{%SESSION_ID%}}
j,0,0.1448,0,61,61,61,1,resources/Slide81.BMP,7IEE03,test49,space,401641,001,2023-06-09_12h52.55.559,drops_juice,2023.1.2,Win32,60.04924038,6482d9e3143038c22fabd9bf,{{%STUDY_ID%}},{{%SESSION_ID%}}
j,1,0.1886,0,62,62,62,1,resources/Slide15.BMP,1DR03,test50,j,401641,001,2023-06-09_12h52.55.559,drops_juice,2023.1.2,Win32,60.04924038,6482d9e3143038c22fabd9bf,{{%STUDY_ID%}},{{%SESSION_ID%}}
j,0,0.201,0,63,63,63,1,resources/Slide30.BMP,2IR07,test51,f,401641,001,2023-06-09_12h52.55.559,drops_juice,2023.1.2,Win32,60.04924038,6482d9e3143038c22fabd9bf,{{%STUDY_ID%}},{{%SESSION_ID%}}
j,0,0.0222,0,64,64,64,1,resources/Slide82.BMP,7IEE04,test52,space,401641,001,2023-06-09_12h52.55.559,drops_juice,2023.1.2,Win32,60.04924038,6482d9e3143038c22fabd9bf,{{%STUDY_ID%}},{{%SESSION_ID%}}
j,0,0.0378,0,65,65,65,1,resources/Slide16.BMP,1DR04,test53,f,401641,001,2023-06-09_12h52.55.559,drops_juice,2023.1.2,Win32,60.04924038,6482d9e3143038c22fabd9bf,{{%STUDY_ID%}},{{%SESSION_ID%}}
j,0,1.4559,0,66,66,66,1,resources/Slide84.BMP,7IEE06,test54,space,401641,001,2023-06-09_12h52.55.559,drops_juice,2023.1.2,Win32,60.04924038,6482d9e3143038c22fabd9bf,{{%STUDY_ID%}},{{%SESSION_ID%}}
j,0,0.0815,0,67,67,67,1,resources/Slide93.BMP,8IEU04,test55,space,401641,001,2023-06-09_12h52.55.559,drops_juice,2023.1.2,Win32,60.04924038,6482d9e3143038c22fabd9bf,{{%STUDY_ID%}},{{%SESSION_ID%}}
j,1,0.5244,0,68,68,68,1,resources/Slide48.BMP,4COU03,test56,j,401641,001,2023-06-09_12h52.55.559,drops_juice,2023.1.2,Win32,60.04924038,6482d9e3143038c22fabd9bf,{{%STUDY_ID%}},{{%SESSION_ID%}}
j,0,0.6247,0,69,69,69,1,resources/Slide85.BMP,7IEE07,test57,space,401641,001,2023-06-09_12h52.55.559,drops_juice,2023.1.2,Win32,60.04924038,6482d9e3143038c22fabd9bf,{{%STUDY_ID%}},{{%SESSION_ID%}}
j,1,0.4071,0,70,70,70,1,resources/Slide50.BMP,4COU05,test58,j,401641,001,2023-06-09_12h52.55.559,drops_juice,2023.1.2,Win32,60.04924038,6482d9e3143038c22fabd9bf,{{%STUDY_ID%}},{{%SESSION_ID%}}
j,0,0.2567,0,71,71,71,1,resources/Slide99.BMP,8IEU10,test59,space,401641,001,2023-06-09_12h52.55.559,drops_juice,2023.1.2,Win32,60.04924038,6482d9e3143038c22fabd9bf,{{%STUDY_ID%}},{{%SESSION_ID%}}
j,1,0.1541,0,72,72,72,1,resources/Slide39.BMP,3COE05,test60,j,401641,001,2023-06-09_12h52.55.559,drops_juice,2023.1.2,Win32,60.04924038,6482d9e3143038c22fabd9bf,{{%STUDY_ID%}},{{%SESSION_ID%}}
j,0,0.1121,0,73,73,73,1,resources/Slide72.BMP,6IIU05,test61,f,401641,001,2023-06-09_12h52.55.559,drops_juice,2023.1.2,Win32,60.04924038,6482d9e3143038c22fabd9bf,{{%STUDY_ID%}},{{%SESSION_ID%}}
j,0,0.1159,0,74,74,74,1,resources/Slide64.BMP,5IIE08,test62,f,401641,001,2023-06-09_12h52.55.559,drops_juice,2023.1.2,Win32,60.04924038,6482d9e3143038c22fabd9bf,{{%STUDY_ID%}},{{%SESSION_ID%}}
j,1,0.0975,0,75,75,75,1,resources/Slide31.BMP,2IR08,test63,j,401641,001,2023-06-09_12h52.55.559,drops_juice,2023.1.2,Win32,60.04924038,6482d9e3143038c22fabd9bf,{{%STUDY_ID%}},{{%SESSION_ID%}}
j,0,0.0076,0,76,76,76,1,resources/Slide62.BMP,5IIE06,test64,f,401641,001,2023-06-09_12h52.55.559,drops_juice,2023.1.2,Win32,60.04924038,6482d9e3143038c22fabd9bf,{{%STUDY_ID%}},{{%SESSION_ID%}}
j,0,0.1302,0,77,77,77,1,resources/Slide49.BMP,4COU04,test65,f,401641,001,2023-06-09_12h52.55.559,drops_juice,2023.1.2,Win32,60.04924038,6482d9e3143038c22fabd9bf,{{%STUDY_ID%}},{{%SESSION_ID%}}
j,0,0.1798,0,78,78,78,1,resources/Slide83.BMP,7IEE05,test66,space,401641,001,2023-06-09_12h52.55.559,drops_juice,2023.1.2,Win32,60.04924038,6482d9e3143038c22fabd9bf,{{%STUDY_ID%}},{{%SESSION_ID%}}
j,1,0.0806,0,79,79,79,1,resources/Slide59.BMP,5IIE03,test67,j,401641,001,2023-06-09_12h52.55.559,drops_juice,2023.1.2,Win32,60.04924038,6482d9e3143038c22fabd9bf,{{%STUDY_ID%}},{{%SESSION_ID%}}
j,0,0.1402,0,80,80,80,1,resources/Slide51.BMP,4COU06,test68,f,401641,001,2023-06-09_12h52.55.559,drops_juice,2023.1.2,Win32,60.04924038,6482d9e3143038c22fabd9bf,{{%STUDY_ID%}},{{%SESSION_ID%}}
j,0,0.1473,0,81,81,81,1,resources/Slide97.BMP,8IEU08,test69,space,401641,001,2023-06-09_12h52.55.559,drops_juice,2023.1.2,Win32,60.04924038,6482d9e3143038c22fabd9bf,{{%STUDY_ID%}},{{%SESSION_ID%}}
j,0,0.1304,0,82,82,82,1,resources/Slide20.BMP,1DR08,test70,f,401641,001,2023-06-09_12h52.55.559,drops_juice,2023.1.2,Win32,60.04924038,6482d9e3143038c22fabd9bf,{{%STUDY_ID%}},{{%SESSION_ID%}}
j,0,0.0951,0,83,83,83,1,resources/Slide98.BMP,8IEU09,test71,space,401641,001,2023-06-09_12h52.55.559,drops_juice,2023.1.2,Win32,60.04924038,6482d9e3143038c22fabd9bf,{{%STUDY_ID%}},{{%SESSION_ID%}}
j,0,0.132,0,84,84,84,1,resources/Slide86.BMP,7IEE08,test72,space,401641,001,2023-06-09_12h52.55.559,drops_juice,2023.1.2,Win32,60.04924038,6482d9e3143038c22fabd9bf,{{%STUDY_ID%}},{{%SESSION_ID%}}
j,1,0.1309,0,85,85,85,1,resources/Slide52.BMP,4COU07,test73,j,401641,001,2023-06-09_12h52.55.559,drops_juice,2023.1.2,Win32,60.04924038,6482d9e3143038c22fabd9bf,{{%STUDY_ID%}},{{%SESSION_ID%}}
j,1,0.191,0,86,86,86,1,resources/Slide63.BMP,5IIE07,test74,j,401641,001,2023-06-09_12h52.55.559,drops_juice,2023.1.2,Win32,60.04924038,6482d9e3143038c22fabd9bf,{{%STUDY_ID%}},{{%SESSION_ID%}}
j,0,0.1926,0,87,87,87,1,resources/Slide42.BMP,3COE08,test75,f,401641,001,2023-06-09_12h52.55.559,drops_juice,2023.1.2,Win32,60.04924038,6482d9e3143038c22fabd9bf,{{%STUDY_ID%}},{{%SESSION_ID%}}
j,1,0.1661,0,88,88,88,1,resources/Slide75.BMP,6IIU08,test76,j,401641,001,2023-06-09_12h52.55.559,drops_juice,2023.1.2,Win32,60.04924038,6482d9e3143038c22fabd9bf,{{%STUDY_ID%}},{{%SESSION_ID%}}
j,0,0.2105,0,89,89,89,1,resources/Slide96.BMP,8IEU07,test77,space,401641,001,2023-06-09_12h52.55.559,drops_juice,2023.1.2,Win32,60.04924038,6482d9e3143038c22fabd9bf,{{%STUDY_ID%}},{{%SESSION_ID%}}
j,0,0.1174,0,90,90,90,1,resources/Slide53.BMP,4COU08,test78,f,401641,001,2023-06-09_12h52.55.559,drops_juice,2023.1.2,Win32,60.04924038,6482d9e3143038c22fabd9bf,{{%STUDY_ID%}},{{%SESSION_ID%}}
j,1,0.0803,0,91,91,91,1,resources/Slide19.BMP,1DR07,test79,j,401641,001,2023-06-09_12h52.55.559,drops_juice,2023.1.2,Win32,60.04924038,6482d9e3143038c22fabd9bf,{{%STUDY_ID%}},{{%SESSION_ID%}}
j,0,0.2421,0,92,92,92,1,resources/Slide74.BMP,6IIU07,test80,f,401641,001,2023-06-09_12h52.55.559,drops_juice,2023.1.2,Win32,60.04924038,6482d9e3143038c22fabd9bf,{{%STUDY_ID%}},{{%SESSION_ID%}}
j,1,0.2467,0,93,93,93,1,resources/Slide61.BMP,5IIE05,test81,j,401641,001,2023-06-09_12h52.55.559,drops_juice,2023.1.2,Win32,60.04924038,6482d9e3143038c22fabd9bf,{{%STUDY_ID%}},{{%SESSION_ID%}}
j,1,0.1464,0,94,94,94,1,resources/Slide27.BMP,2IR04,test82,j,401641,001,2023-06-09_12h52.55.559,drops_juice,2023.1.2,Win32,60.04924038,6482d9e3143038c22fabd9bf,{{%STUDY_ID%}},{{%SESSION_ID%}}
j,0,0.1203,0,95,95,95,1,resources/Slide102.bmp,ins,end of test,,401641,001,2023-06-09_12h52.55.559,drops_juice,2023.1.2,Win32,60.04924038,6482d9e3143038c22fabd9bf,{{%STUDY_ID%}},{{%SESSION_ID%}}
j,0,0.4683,0,96,96,96,1,resources/Slide01.bmp,ins,instruction_g,,401641,001,2023-06-09_12h52.55.559,drops_juice,2023.1.2,Win32,60.04924038,6482d9e3143038c22fabd9bf,{{%STUDY_ID%}},{{%SESSION_ID%}}
j,0,0.1713,0,97,97,97,1,resources/Slide02.bmp,ins,practice_start,,401641,001,2023-06-09_12h52.55.559,drops_juice,2023.1.2,Win32,60.04924038,6482d9e3143038c22fabd9bf,{{%STUDY_ID%}},{{%SESSION_ID%}}
j,1,0.1096,0,98,98,98,1,resources/Slide03.BMP,1DR,pract1,j,401641,001,2023-06-09_12h52.55.559,drops_juice,2023.1.2,Win32,60.04924038,6482d9e3143038c22fabd9bf,{{%STUDY_ID%}},{{%SESSION_ID%}}
j,0,0.1672,0,99,99,99,1,resources/Slide04.BMP,2IR,pract2,f,401641,001,2023-06-09_12h52.55.559,drops_juice,2023.1.2,Win32,60.04924038,6482d9e3143038c22fabd9bf,{{%STUDY_ID%}},{{%SESSION_ID%}}
j,0,0.0953,0,100,100,100,1,resources/Slide05.BMP,8IEU,pract3,space,401641,001,2023-06-09_12h52.55.559,drops_juice,2023.1.2,Win32,60.04924038,6482d9e3143038c22fabd9bf,{{%STUDY_ID%}},{{%SESSION_ID%}}
j,1,0.1124,0,101,101,101,1,resources/Slide06.BMP,3COE,pract4,j,401641,001,2023-06-09_12h52.55.559,drops_juice,2023.1.2,Win32,60.04924038,6482d9e3143038c22fabd9bf,{{%STUDY_ID%}},{{%SESSION_ID%}}
j,1,0.1426,0,102,102,102,1,resources/Slide07.BMP,4COU,pract5,j,401641,001,2023-06-09_12h52.55.559,drops_juice,2023.1.2,Win32,60.04924038,6482d9e3143038c22fabd9bf,{{%STUDY_ID%}},{{%SESSION_ID%}}
j,0,0.1298,0,103,103,103,1,resources/Slide08.BMP,5IIE,pract6,f,401641,001,2023-06-09_12h52.55.559,drops_juice,2023.1.2,Win32,60.04924038,6482d9e3143038c22fabd9bf,{{%STUDY_ID%}},{{%SESSION_ID%}}
j,0,0.1209,0,104,104,104,1,resources/Slide09.BMP,6IIU,pract7,f,401641,001,2023-06-09_12h52.55.559,drops_juice,2023.1.2,Win32,60.04924038,6482d9e3143038c22fabd9bf,{{%STUDY_ID%}},{{%SESSION_ID%}}
j,0,0.1206,0,105,105,105,1,resources/Slide010.BMP,7IEE,pract8,space,401641,001,2023-06-09_12h52.55.559,drops_juice,2023.1.2,Win32,60.04924038,6482d9e3143038c22fabd9bf,{{%STUDY_ID%}},{{%SESSION_ID%}}
j,0,0.001,0,106,106,106,1,resources/Slide011.bmp,ins,test_start,,401641,001,2023-06-09_12h52.55.559,drops_juice,2023.1.2,Win32,60.04924038,6482d9e3143038c22fabd9bf,{{%STUDY_ID%}},{{%SESSION_ID%}}
j,1,0.163,0,107,107,107,1,resources/Slide03.BMP,1DR,dummy1,j,401641,001,2023-06-09_12h52.55.559,drops_juice,2023.1.2,Win32,60.04924038,6482d9e3143038c22fabd9bf,{{%STUDY_ID%}},{{%SESSION_ID%}}
j,0,0.1203,0,108,108,108,1,resources/Slide010.BMP,7IEE,dummy2,space,401641,001,2023-06-09_12h52.55.559,drops_juice,2023.1.2,Win32,60.04924038,6482d9e3143038c22fabd9bf,{{%STUDY_ID%}},{{%SESSION_ID%}}
j,0,0.001,0,109,109,109,1,resources/Slide036.BMP,3COE02,test01,f,401641,001,2023-06-09_12h52.55.559,drops_juice,2023.1.2,Win32,60.04924038,6482d9e3143038c22fabd9bf,{{%STUDY_ID%}},{{%SESSION_ID%}}
j,0,0.0631,0,110,110,110,1,resources/Slide080.BMP,7IEE02,test02,space,401641,001,2023-06-09_12h52.55.559,drops_juice,2023.1.2,Win32,60.04924038,6482d9e3143038c22fabd9bf,{{%STUDY_ID%}},{{%SESSION_ID%}}
j,0,0.0431,0,111,111,111,1,resources/Slide055.BMP,4COU10,test03,f,401641,001,2023-06-09_12h52.55.559,drops_juice,2023.1.2,Win32,60.04924038,6482d9e3143038c22fabd9bf,{{%STUDY_ID%}},{{%SESSION_ID%}}
j,1,0.0594,0,112,112,112,1,resources/Slide077.BMP,6IIU10,test04,j,401641,001,2023-06-09_12h52.55.559,drops_juice,2023.1.2,Win32,60.04924038,6482d9e3143038c22fabd9bf,{{%STUDY_ID%}},{{%SESSION_ID%}}
j,1,0.0495,0,113,113,113,1,resources/Slide033.BMP,2IR10,test05,j,401641,001,2023-06-09_12h52.55.559,drops_juice,2023.1.2,Win32,60.04924038,6482d9e3143038c22fabd9bf,{{%STUDY_ID%}},{{%SESSION_ID%}}
j,0,0.1009,0,114,114,114,1,resources/Slide090.BMP,8IEU01,test06,space,401641,001,2023-06-09_12h52.55.559,drops_juice,2023.1.2,Win32,60.04924038,6482d9e3143038c22fabd9bf,{{%STUDY_ID%}},{{%SESSION_ID%}}
j,0,0.0775,0,115,115,115,1,resources/Slide014.BMP,1DR02,test07,f,401641,001,2023-06-09_12h52.55.559,drops_juice,2023.1.2,Win32,60.04924038,6482d9e3143038c22fabd9bf,{{%STUDY_ID%}},{{%SESSION_ID%}}
j,0,0.0889,0,116,116,116,1,resources/Slide088.BMP,7IEE10,test08,space,401641,001,2023-06-09_12h52.55.559,drops_juice,2023.1.2,Win32,60.04924038,6482d9e3143038c22fabd9bf,{{%STUDY_ID%}},{{%SESSION_ID%}}
j,0,0.1062,0,117,117,117,1,resources/Slide032.BMP,2IR09,test09,f,401641,001,2023-06-09_12h52.55.559,drops_juice,2023.1.2,Win32,60.04924038,6482d9e3143038c22fabd9bf,{{%STUDY_ID%}},{{%SESSION_ID%}}
j,0,0.1108,0,118,118,118,1,resources/Slide068.BMP,6IIU01,test10,f,401641,001,2023-06-09_12h52.55.559,drops_juice,2023.1.2,Win32,60.04924038,6482d9e3143038c22fabd9bf,{{%STUDY_ID%}},{{%SESSION_ID%}}
j,1,0.1011,0,119,119,119,1,resources/Slide035.BMP,3COE01,test11,j,401641,001,2023-06-09_12h52.55.559,drops_juice,2023.1.2,Win32,60.04924038,6482d9e3143038c22fabd9bf,{{%STUDY_ID%}},{{%SESSION_ID%}}
j,0,0.1264,0,120,120,120,1,resources/Slide0100.BMP,8IEU11,test12,space,401641,001,2023-06-09_12h52.55.559,drops_juice,2023.1.2,Win32,60.04924038,6482d9e3143038c22fabd9bf,{{%STUDY_ID%}},{{%SESSION_ID%}}
j,1,0.1093,0,121,121,121,1,resources/Slide046.BMP,4COU01,test13,j,401641,001,2023-06-09_12h52.55.559,drops_juice,2023.1.2,Win32,60.04924038,6482d9e3143038c22fabd9bf,{{%STUDY_ID%}},{{%SESSION_ID%}}
j,0,0.1006,0,122,122,122,1,resources/Slide0101.BMP,8IEU12,test14,space,401641,001,2023-06-09_12h52.55.559,drops_juice,2023.1.2,Win32,60.04924038,6482d9e3143038c22fabd9bf,{{%STUDY_ID%}},{{%SESSION_ID%}}
j,0,0.1553,0,123,123,123,1,resources/Slide079.BMP,7IEE01,test15,space,401641,001,2023-06-09_12h52.55.559,drops_juice,2023.1.2,Win32,60.04924038,6482d9e3143038c22fabd9bf,{{%STUDY_ID%}},{{%SESSION_ID%}}
j,1,0.1747,0,124,124,124,1,resources/Slide021.BMP,1DR09,test16,j,401641,001,2023-06-09_12h52.55.559,drops_juice,2023.1.2,Win32,60.04924038,6482d9e3143038c22fabd9bf,{{%STUDY_ID%}},{{%SESSION_ID%}}
j,0,0.1586,0,125,125,125,1,resources/Slide076.BMP,6IIU09,test17,f,401641,001,2023-06-09_12h52.55.559,drops_juice,2023.1.2,Win32,60.04924038,6482d9e3143038c22fabd9bf,{{%STUDY_ID%}},{{%SESSION_ID%}}
j,0,0.1084,0,126,126,126,1,resources/Slide044.BMP,3COE10,test18,f,401641,001,2023-06-09_12h52.55.559,drops_juice,2023.1.2,Win32,60.04924038,6482d9e3143038c22fabd9bf,{{%STUDY_ID%}},{{%SESSION_ID%}}
j,1,0.0718,0,127,127,127,1,resources/Slide057.BMP,5IIE01,test19,j,401641,001,2023-06-09_12h52.55.559,drops_juice,2023.1.2,Win32,60.04924038,6482d9e3143038c22fabd9bf,{{%STUDY_ID%}},{{%SESSION_ID%}}
j,1,0.0942,0,128,128,128,1,resources/Slide025.BMP,2IR02,test20,j,401641,001,2023-06-09_12h52.55.559,drops_juice,2023.1.2,Win32,60.04924038,6482d9e3143038c22fabd9bf,{{%STUDY_ID%}},{{%SESSION_ID%}}
j,0,0.1056,0,129,129,129,1,resources/Slide087.BMP,7IEE09,test21,space,401641,001,2023-06-09_12h52.55.559,drops_juice,2023.1.2,Win32,60.04924038,6482d9e3143038c22fabd9bf,{{%STUDY_ID%}},{{%SESSION_ID%}}
j,0,0.1097,0,130,130,130,1,resources/Slide066.BMP,5IIE10,test22,f,401641,001,2023-06-09_12h52.55.559,drops_juice,2023.1.2,Win32,60.04924038,6482d9e3143038c22fabd9bf,{{%STUDY_ID%}},{{%SESSION_ID%}}
j,0,0.1377,0,131,131,131,1,resources/Slide047.BMP,4COU02,test23,f,401641,001,2023-06-09_12h52.55.559,drops_juice,2023.1.2,Win32,60.04924038,6482d9e3143038c22fabd9bf,{{%STUDY_ID%}},{{%SESSION_ID%}}
j,1,0.0827,0,132,132,132,1,resources/Slide043.BMP,3COE09,test24,j,401641,001,2023-06-09_12h52.55.559,drops_juice,2023.1.2,Win32,60.04924038,6482d9e3143038c22fabd9bf,{{%STUDY_ID%}},{{%SESSION_ID%}}
j,1,0.1471,0,133,133,133,1,resources/Slide065.BMP,5IIE09,test25,j,401641,001,2023-06-09_12h52.55.559,drops_juice,2023.1.2,Win32,60.04924038,6482d9e3143038c22fabd9bf,{{%STUDY_ID%}},{{%SESSION_ID%}}
j,0,0.1486,0,134,134,134,1,resources/Slide024.BMP,2IR01,test26,f,401641,001,2023-06-09_12h52.55.559,drops_juice,2023.1.2,Win32,60.04924038,6482d9e3143038c22fabd9bf,{{%STUDY_ID%}},{{%SESSION_ID%}}
j,0,0.1743,0,135,135,135,1,resources/Slide022.BMP,1DR10,test27,f,401641,001,2023-06-09_12h52.55.559,drops_juice,2023.1.2,Win32,60.04924038,6482d9e3143038c22fabd9bf,{{%STUDY_ID%}},{{%SESSION_ID%}}
j,1,0.0376,0,136,136,136,1,resources/Slide069.BMP,6IIU02,test28,j,401641,001,2023-06-09_12h52.55.559,drops_juice,2023.1.2,Win32,60.04924038,6482d9e3143038c22fabd9bf,{{%STUDY_ID%}},{{%SESSION_ID%}}
j,0,0.1082,0,137,137,137,1,resources/Slide091.BMP,8IEU02,test29,space,401641,001,2023-06-09_12h52.55.559,drops_juice,2023.1.2,Win32,60.04924038,6482d9e3143038c22fabd9bf,{{%STUDY_ID%}},{{%SESSION_ID%}}
j,1,0.0912,0,138,138,138,1,resources/Slide013.BMP,1DR01,test30,j,401641,001,2023-06-09_12h52.55.559,drops_juice,2023.1.2,Win32,60.04924038,6482d9e3143038c22fabd9bf,{{%STUDY_ID%}},{{%SESSION_ID%}}
j,1,0.0811,0,139,139,139,1,resources/Slide054.BMP,4COU09,test31,j,401641,001,2023-06-09_12h52.55.559,drops_juice,2023.1.2,Win32,60.04924038,6482d9e3143038c22fabd9bf,{{%STUDY_ID%}},{{%SESSION_ID%}}
j,0,0.0942,0,140,140,140,1,resources/Slide058.BMP,5IIE02,test32,f,401641,001,2023-06-09_12h52.55.559,drops_juice,2023.1.2,Win32,60.04924038,6482d9e3143038c22fabd9bf,{{%STUDY_ID%}},{{%SESSION_ID%}}
j,1,0.0665,0,141,141,141,1,resources/Slide041.BMP,3COE07,test33,j,401641,001,2023-06-09_12h52.55.559,drops_juice,2023.1.2,Win32,60.04924038,6482d9e3143038c22fabd9bf,{{%STUDY_ID%}},{{%SESSION_ID%}}
j,0,0.1259,0,142,142,142,1,resources/Slide018.BMP,1DR06,test34,f,401641,001,2023-06-09_12h52.55.559,drops_juice,2023.1.2,Win32,60.04924038,6482d9e3143038c22fabd9bf,{{%STUDY_ID%}},{{%SESSION_ID%}}
j,1,0.0751,0,143,143,143,1,resources/Slide073.BMP,6IIU06,test35,j,401641,001,2023-06-09_12h52.55.559,drops_juice,2023.1.2,Win32,60.04924038,6482d9e3143038c22fabd9bf,{{%STUDY_ID%}},{{%SESSION_ID%}}
j,0,0.0646,0,144,144,144,1,resources/Slide026.BMP,2IR03,test36,f,401641,001,2023-06-09_12h52.55.559,drops_juice,2023.1.2,Win32,60.04924038,6482d9e3143038c22fabd9bf,{{%STUDY_ID%}},{{%SESSION_ID%}}
j,0,0.1013,0,145,145,145,1,resources/Slide092.BMP,8IEU03,test37,space,401641,001,2023-06-09_12h52.55.559,drops_juice,2023.1.2,Win32,60.04924038,6482d9e3143038c22fabd9bf,{{%STUDY_ID%}},{{%SESSION_ID%}}
j,0,0.0936,0,146,146,146,1,resources/Slide040.BMP,3COE06,test38,f,401641,001,2023-06-09_12h52.55.559,drops_juice,2023.1.2,Win32,60.04924038,6482d9e3143038c22fabd9bf,{{%STUDY_ID%}},{{%SESSION_ID%}}
j,1,0.0439,0,147,147,147,1,resources/Slide071.BMP,6IIU04,test39,j,401641,001,2023-06-09_12h52.55.559,drops_juice,2023.1.2,Win32,60.04924038,6482d9e3143038c22fabd9bf,{{%STUDY_ID%}},{{%SESSION_ID%}}
j,0,0.1463,0,148,148,148,1,resources/Slide028.BMP,2IR05,test40,f,401641,001,2023-06-09_12h52.55.559,drops_juice,2023.1.2,Win32,60.04924038,6482d9e3143038c22fabd9bf,{{%STUDY_ID%}},{{%SESSION_ID%}}
j,0,0.0793,0,149,149,149,1,resources/Slide038.BMP,3COE04,test41,f,401641,001,2023-06-09_12h52.55.559,drops_juice,2023.1.2,Win32,60.04924038,6482d9e3143038c22fabd9bf,{{%STUDY_ID%}},{{%SESSION_ID%}}
j,0,0.0936,0,150,150,150,1,resources/Slide094.BMP,8IEU05,test42,space,401641,001,2023-06-09_12h52.55.559,drops_juice,2023.1.2,Win32,60.04924038,6482d9e3143038c22fabd9bf,{{%STUDY_ID%}},{{%SESSION_ID%}}
j,1,0.0493,0,151,151,151,1,resources/Slide029.BMP,2IR06,test43,j,401641,001,2023-06-09_12h52.55.559,drops_juice,2023.1.2,Win32,60.04924038,6482d9e3143038c22fabd9bf,{{%STUDY_ID%}},{{%SESSION_ID%}}
j,0,0.0587,0,152,152,152,1,resources/Slide060.BMP,5IIE04,test44,f,401641,001,2023-06-09_12h52.55.559,drops_juice,2023.1.2,Win32,60.04924038,6482d9e3143038c22fabd9bf,{{%STUDY_ID%}},{{%SESSION_ID%}}
j,0,0.0888,0,153,153,153,1,resources/Slide070.BMP,6IIU03,test45,f,401641,001,2023-06-09_12h52.55.559,drops_juice,2023.1.2,Win32,60.04924038,6482d9e3143038c22fabd9bf,{{%STUDY_ID%}},{{%SESSION_ID%}}
j,1,0.1026,0,154,154,154,1,resources/Slide017.BMP,1DR05,test46,j,401641,001,2023-06-09_12h52.55.559,drops_juice,2023.1.2,Win32,60.04924038,6482d9e3143038c22fabd9bf,{{%STUDY_ID%}},{{%SESSION_ID%}}
j,0,0.113,0,155,155,155,1,resources/Slide095.BMP,8IEU06,test47,space,401641,001,2023-06-09_12h52.55.559,drops_juice,2023.1.2,Win32,60.04924038,6482d9e3143038c22fabd9bf,{{%STUDY_ID%}},{{%SESSION_ID%}}
j,1,0.1032,0,156,156,156,1,resources/Slide037.BMP,3COE03,test48,j,401641,001,2023-06-09_12h52.55.559,drops_juice,2023.1.2,Win32,60.04924038,6482d9e3143038c22fabd9bf,{{%STUDY_ID%}},{{%SESSION_ID%}}
j,0,0.0813,0,157,157,157,1,resources/Slide081.BMP,7IEE03,test49,space,401641,001,2023-06-09_12h52.55.559,drops_juice,2023.1.2,Win32,60.04924038,6482d9e3143038c22fabd9bf,{{%STUDY_ID%}},{{%SESSION_ID%}}
j,1,0.0579,0,158,158,158,1,resources/Slide015.BMP,1DR03,test50,j,401641,001,2023-06-09_12h52.55.559,drops_juice,2023.1.2,Win32,60.04924038,6482d9e3143038c22fabd9bf,{{%STUDY_ID%}},{{%SESSION_ID%}}
j,0,0.0838,0,159,159,159,1,resources/Slide030.BMP,2IR07,test51,f,401641,001,2023-06-09_12h52.55.559,drops_juice,2023.1.2,Win32,60.04924038,6482d9e3143038c22fabd9bf,{{%STUDY_ID%}},{{%SESSION_ID%}}
j,0,0.0999,0,160,160,160,1,resources/Slide082.BMP,7IEE04,test52,space,401641,001,2023-06-09_12h52.55.559,drops_juice,2023.1.2,Win32,60.04924038,6482d9e3143038c22fabd9bf,{{%STUDY_ID%}},{{%SESSION_ID%}}
j,0,0.0916,0,161,161,161,1,resources/Slide016.BMP,1DR04,test53,f,401641,001,2023-06-09_12h52.55.559,drops_juice,2023.1.2,Win32,60.04924038,6482d9e3143038c22fabd9bf,{{%STUDY_ID%}},{{%SESSION_ID%}}
j,0,0.1332,0,162,162,162,1,resources/Slide084.BMP,7IEE06,test54,space,401641,001,2023-06-09_12h52.55.559,drops_juice,2023.1.2,Win32,60.04924038,6482d9e3143038c22fabd9bf,{{%STUDY_ID%}},{{%SESSION_ID%}}
j,0,0.0387,0,163,163,163,1,resources/Slide093.BMP,8IEU04,test55,space,401641,001,2023-06-09_12h52.55.559,drops_juice,2023.1.2,Win32,60.04924038,6482d9e3143038c22fabd9bf,{{%STUDY_ID%}},{{%SESSION_ID%}}
j,1,0.0638,0,164,164,164,1,resources/Slide048.BMP,4COU03,test56,j,401641,001,2023-06-09_12h52.55.559,drops_juice,2023.1.2,Win32,60.04924038,6482d9e3143038c22fabd9bf,{{%STUDY_ID%}},{{%SESSION_ID%}}
j,0,0.0843,0,165,165,165,1,resources/Slide085.BMP,7IEE07,test57,space,401641,001,2023-06-09_12h52.55.559,drops_juice,2023.1.2,Win32,60.04924038,6482d9e3143038c22fabd9bf,{{%STUDY_ID%}},{{%SESSION_ID%}}
j,1,0.054,0,166,166,166,1,resources/Slide050.BMP,4COU05,test58,j,401641,001,2023-06-09_12h52.55.559,drops_juice,2023.1.2,Win32,60.04924038,6482d9e3143038c22fabd9bf,{{%STUDY_ID%}},{{%SESSION_ID%}}
j,0,0.036,0,167,167,167,1,resources/Slide099.BMP,8IEU10,test59,space,401641,001,2023-06-09_12h52.55.559,drops_juice,2023.1.2,Win32,60.04924038,6482d9e3143038c22fabd9bf,{{%STUDY_ID%}},{{%SESSION_ID%}}
j,1,0.072,0,168,168,168,1,resources/Slide039.BMP,3COE05,test60,j,401641,001,2023-06-09_12h52.55.559,drops_juice,2023.1.2,Win32,60.04924038,6482d9e3143038c22fabd9bf,{{%STUDY_ID%}},{{%SESSION_ID%}}
j,0,0.0261,0,169,169,169,1,resources/Slide072.BMP,6IIU05,test61,f,401641,001,2023-06-09_12h52.55.559,drops_juice,2023.1.2,Win32,60.04924038,6482d9e3143038c22fabd9bf,{{%STUDY_ID%}},{{%SESSION_ID%}}
j,0,0.0584,0,170,170,170,1,resources/Slide064.BMP,5IIE08,test62,f,401641,001,2023-06-09_12h52.55.559,drops_juice,2023.1.2,Win32,60.04924038,6482d9e3143038c22fabd9bf,{{%STUDY_ID%}},{{%SESSION_ID%}}
j,1,0.0899,0,171,171,171,1,resources/Slide031.BMP,2IR08,test63,j,401641,001,2023-06-09_12h52.55.559,drops_juice,2023.1.2,Win32,60.04924038,6482d9e3143038c22fabd9bf,{{%STUDY_ID%}},{{%SESSION_ID%}}
j,0,0.0464,0,172,172,172,1,resources/Slide062.BMP,5IIE06,test64,f,401641,001,2023-06-09_12h52.55.559,drops_juice,2023.1.2,Win32,60.04924038,6482d9e3143038c22fabd9bf,{{%STUDY_ID%}},{{%SESSION_ID%}}
j,0,0.0736,0,173,173,173,1,resources/Slide049.BMP,4COU04,test65,f,401641,001,2023-06-09_12h52.55.559,drops_juice,2023.1.2,Win32,60.04924038,6482d9e3143038c22fabd9bf,{{%STUDY_ID%}},{{%SESSION_ID%}}
j,0,0.0255,0,174,174,174,1,resources/Slide083.BMP,7IEE05,test66,space,401641,001,2023-06-09_12h52.55.559,drops_juice,2023.1.2,Win32,60.04924038,6482d9e3143038c22fabd9bf,{{%STUDY_ID%}},{{%SESSION_ID%}}
j,1,0.0791,0,175,175,175,1,resources/Slide059.BMP,5IIE03,test67,j,401641,001,2023-06-09_12h52.55.559,drops_juice,2023.1.2,Win32,60.04924038,6482d9e3143038c22fabd9bf,{{%STUDY_ID%}},{{%SESSION_ID%}}
j,0,0.0925,0,176,176,176,1,resources/Slide051.BMP,4COU06,test68,f,401641,001,2023-06-09_12h52.55.559,drops_juice,2023.1.2,Win32,60.04924038,6482d9e3143038c22fabd9bf,{{%STUDY_ID%}},{{%SESSION_ID%}}
j,0,0.0485,0,177,177,177,1,resources/Slide097.BMP,8IEU08,test69,space,401641,001,2023-06-09_12h52.55.559,drops_juice,2023.1.2,Win32,60.04924038,6482d9e3143038c22fabd9bf,{{%STUDY_ID%}},{{%SESSION_ID%}}
j,0,0.1272,0,178,178,178,1,resources/Slide020.BMP,1DR08,test70,f,401641,001,2023-06-09_12h52.55.559,drops_juice,2023.1.2,Win32,60.04924038,6482d9e3143038c22fabd9bf,{{%STUDY_ID%}},{{%SESSION_ID%}}
j,0,0.0973,0,179,179,179,1,resources/Slide098.BMP,8IEU09,test71,space,401641,001,2023-06-09_12h52.55.559,drops_juice,2023.1.2,Win32,60.04924038,6482d9e3143038c22fabd9bf,{{%STUDY_ID%}},{{%SESSION_ID%}}
j,0,0.1337,0,180,180,180,1,resources/Slide086.BMP,7IEE08,test72,space,401641,001,2023-06-09_12h52.55.559,drops_juice,2023.1.2,Win32,60.04924038,6482d9e3143038c22fabd9bf,{{%STUDY_ID%}},{{%SESSION_ID%}}
j,1,0.1254,0,181,181,181,1,resources/Slide052.BMP,4COU07,test73,j,401641,001,2023-06-09_12h52.55.559,drops_juice,2023.1.2,Win32,60.04924038,6482d9e3143038c22fabd9bf,{{%STUDY_ID%}},{{%SESSION_ID%}}
j,1,0.1341,0,182,182,182,1,resources/Slide063.BMP,5IIE07,test74,j,401641,001,2023-06-09_12h52.55.559,drops_juice,2023.1.2,Win32,60.04924038,6482d9e3143038c22fabd9bf,{{%STUDY_ID%}},{{%SESSION_ID%}}
j,0,0.1236,0,183,183,183,1,resources/Slide042.BMP,3COE08,test75,f,401641,001,2023-06-09_12h52.55.559,drops_juice,2023.1.2,Win32,60.04924038,6482d9e3143038c22fabd9bf,{{%STUDY_ID%}},{{%SESSION_ID%}}
j,1,0.1589,0,184,184,184,1,resources/Slide075.BMP,6IIU08,test76,j,401641,001,2023-06-09_12h52.55.559,drops_juice,2023.1.2,Win32,60.04924038,6482d9e3143038c22fabd9bf,{{%STUDY_ID%}},{{%SESSION_ID%}}
j,0,0.2627,0,185,185,185,1,resources/Slide096.BMP,8IEU07,test77,space,401641,001,2023-06-09_12h52.55.559,drops_juice,2023.1.2,Win32,60.04924038,6482d9e3143038c22fabd9bf,{{%STUDY_ID%}},{{%SESSION_ID%}}
j,0,0.2755,0,186,186,186,1,resources/Slide053.BMP,4COU08,test78,f,401641,001,2023-06-09_12h52.55.559,drops_juice,2023.1.2,Win32,60.04924038,6482d9e3143038c22fabd9bf,{{%STUDY_ID%}},{{%SESSION_ID%}}
j,1,0.2792,0,187,187,187,1,resources/Slide019.BMP,1DR07,test79,j,401641,001,2023-06-09_12h52.55.559,drops_juice,2023.1.2,Win32,60.04924038,6482d9e3143038c22fabd9bf,{{%STUDY_ID%}},{{%SESSION_ID%}}
j,0,0.2091,0,188,188,188,1,resources/Slide074.BMP,6IIU07,test80,f,401641,001,2023-06-09_12h52.55.559,drops_juice,2023.1.2,Win32,60.04924038,6482d9e3143038c22fabd9bf,{{%STUDY_ID%}},{{%SESSION_ID%}}
j,1,0.1753,0,189,189,189,1,resources/Slide061.BMP,5IIE05,test81,j,401641,001,2023-06-09_12h52.55.559,drops_juice,2023.1.2,Win32,60.04924038,6482d9e3143038c22fabd9bf,{{%STUDY_ID%}},{{%SESSION_ID%}}
j,1,0.2485,0,190,190,190,1,resources/Slide027.BMP,2IR04,test82,j,401641,001,2023-06-09_12h52.55.559,drops_juice,2023.1.2,Win32,60.04924038,6482d9e3143038c22fabd9bf,{{%STUDY_ID%}},{{%SESSION_ID%}}
j,0,0.2615,0,191,191,191,1,resources/Slide0102.bmp,ins,end of test,,401641,001,2023-06-09_12h52.55.559,drops_juice,2023.1.2,Win32,60.04924038,6482d9e3143038c22fabd9bf,{{%STUDY_ID%}},{{%SESSION_ID%}}
