response.keys,response.corr,response.rt,trials.thisRepN,trials.thisTrialN,trials.thisN,trials.thisIndex,trials.ran,TrialName,Cond,Event,CorrAns,participant,session,date,expName,psychopyVersion,OS,frameRate,PROLIFIC_PID,STUDY_ID,SESSION_ID
j,0,266.556,0,0,0,0,1,resources/Slide1.bmp,ins,instruction_g,,410005,001,2023-08-21_13h15.27.737,drops_juice,2023.1.2,Win32,74.96251874,5f2e48f9498e160008a60d2d,6482ffc4da57468e3568a8f2,64e34529137fbfab85d9417d
j,0,0.877,0,1,1,1,1,resources/Slide2.bmp,ins,practice_start,,410005,001,2023-08-21_13h15.27.737,drops_juice,2023.1.2,Win32,74.96251874,5f2e48f9498e160008a60d2d,6482ffc4da57468e3568a8f2,64e34529137fbfab85d9417d
j,1,1.078,0,2,2,2,1,resources/Slide3.BMP,1DR,pract1,j,410005,001,2023-08-21_13h15.27.737,drops_juice,2023.1.2,Win32,74.96251874,5f2e48f9498e160008a60d2d,6482ffc4da57468e3568a8f2,64e34529137fbfab85d9417d
f,1,1.542,0,3,3,3,1,resources/Slide4.BMP,2IR,pract2,f,410005,001,2023-08-21_13h15.27.737,drops_juice,2023.1.2,Win32,74.96251874,5f2e48f9498e160008a60d2d,6482ffc4da57468e3568a8f2,64e34529137fbfab85d9417d
f,0,2.17,0,4,4,4,1,resources/Slide5.BMP,8IEU,pract3,space,410005,001,2023-08-21_13h15.27.737,drops_juice,2023.1.2,Win32,74.96251874,5f2e48f9498e160008a60d2d,6482ffc4da57468e3568a8f2,64e34529137fbfab85d9417d
space,0,5.278,0,5,5,5,1,resources/Slide6.BMP,3COE,pract4,j,410005,001,2023-08-21_13h15.27.737,drops_juice,2023.1.2,Win32,74.96251874,5f2e48f9498e160008a60d2d,6482ffc4da57468e3568a8f2,64e34529137fbfab85d9417d
j,1,4.632,0,6,6,6,1,resources/Slide7.BMP,4COU,pract5,j,410005,001,2023-08-21_13h15.27.737,drops_juice,2023.1.2,Win32,74.96251874,5f2e48f9498e160008a60d2d,6482ffc4da57468e3568a8f2,64e34529137fbfab85d9417d
f,1,1.482,0,7,7,7,1,resources/Slide8.BMP,5IIE,pract6,f,410005,001,2023-08-21_13h15.27.737,drops_juice,2023.1.2,Win32,74.96251874,5f2e48f9498e160008a60d2d,6482ffc4da57468e3568a8f2,64e34529137fbfab85d9417d
space,0,3.63,0,8,8,8,1,resources/Slide9.BMP,6IIU,pract7,f,410005,001,2023-08-21_13h15.27.737,drops_juice,2023.1.2,Win32,74.96251874,5f2e48f9498e160008a60d2d,6482ffc4da57468e3568a8f2,64e34529137fbfab85d9417d
space,1,3.565,0,9,9,9,1,resources/Slide10.BMP,7IEE,pract8,space,410005,001,2023-08-21_13h15.27.737,drops_juice,2023.1.2,Win32,74.96251874,5f2e48f9498e160008a60d2d,6482ffc4da57468e3568a8f2,64e34529137fbfab85d9417d
f,0,27.315,0,10,10,10,1,resources/Slide11.bmp,ins,test_start,,410005,001,2023-08-21_13h15.27.737,drops_juice,2023.1.2,Win32,74.96251874,5f2e48f9498e160008a60d2d,6482ffc4da57468e3568a8f2,64e34529137fbfab85d9417d
j,1,0.89,0,11,11,11,1,resources/Slide3.BMP,1DR,dummy1,j,410005,001,2023-08-21_13h15.27.737,drops_juice,2023.1.2,Win32,74.96251874,5f2e48f9498e160008a60d2d,6482ffc4da57468e3568a8f2,64e34529137fbfab85d9417d
space,1,2.707,0,12,12,12,1,resources/Slide10.BMP,7IEE,dummy2,space,410005,001,2023-08-21_13h15.27.737,drops_juice,2023.1.2,Win32,74.96251874,5f2e48f9498e160008a60d2d,6482ffc4da57468e3568a8f2,64e34529137fbfab85d9417d
space,0,4.796,0,13,13,13,1,resources/Slide36.BMP,3COE02,test01,f,410005,001,2023-08-21_13h15.27.737,drops_juice,2023.1.2,Win32,74.96251874,5f2e48f9498e160008a60d2d,6482ffc4da57468e3568a8f2,64e34529137fbfab85d9417d
space,1,1.849,0,14,14,14,1,resources/Slide80.BMP,7IEE02,test02,space,410005,001,2023-08-21_13h15.27.737,drops_juice,2023.1.2,Win32,74.96251874,5f2e48f9498e160008a60d2d,6482ffc4da57468e3568a8f2,64e34529137fbfab85d9417d
f,1,1.381,0,15,15,15,1,resources/Slide55.BMP,4COU10,test03,f,410005,001,2023-08-21_13h15.27.737,drops_juice,2023.1.2,Win32,74.96251874,5f2e48f9498e160008a60d2d,6482ffc4da57468e3568a8f2,64e34529137fbfab85d9417d
j,1,3.89,0,16,16,16,1,resources/Slide77.BMP,6IIU10,test04,j,410005,001,2023-08-21_13h15.27.737,drops_juice,2023.1.2,Win32,74.96251874,5f2e48f9498e160008a60d2d,6482ffc4da57468e3568a8f2,64e34529137fbfab85d9417d
j,1,3.318,0,17,17,17,1,resources/Slide33.BMP,2IR10,test05,j,410005,001,2023-08-21_13h15.27.737,drops_juice,2023.1.2,Win32,74.96251874,5f2e48f9498e160008a60d2d,6482ffc4da57468e3568a8f2,64e34529137fbfab85d9417d
f,0,3.33,0,18,18,18,1,resources/Slide90.BMP,8IEU01,test06,space,410005,001,2023-08-21_13h15.27.737,drops_juice,2023.1.2,Win32,74.96251874,5f2e48f9498e160008a60d2d,6482ffc4da57468e3568a8f2,64e34529137fbfab85d9417d
f,1,2.023,0,19,19,19,1,resources/Slide14.BMP,1DR02,test07,f,410005,001,2023-08-21_13h15.27.737,drops_juice,2023.1.2,Win32,74.96251874,5f2e48f9498e160008a60d2d,6482ffc4da57468e3568a8f2,64e34529137fbfab85d9417d
space,1,1.906,0,20,20,20,1,resources/Slide88.BMP,7IEE10,test08,space,410005,001,2023-08-21_13h15.27.737,drops_juice,2023.1.2,Win32,74.96251874,5f2e48f9498e160008a60d2d,6482ffc4da57468e3568a8f2,64e34529137fbfab85d9417d
f,1,4.013,0,21,21,21,1,resources/Slide32.BMP,2IR09,test09,f,410005,001,2023-08-21_13h15.27.737,drops_juice,2023.1.2,Win32,74.96251874,5f2e48f9498e160008a60d2d,6482ffc4da57468e3568a8f2,64e34529137fbfab85d9417d
f,1,2.266,0,22,22,22,1,resources/Slide68.BMP,6IIU01,test10,f,410005,001,2023-08-21_13h15.27.737,drops_juice,2023.1.2,Win32,74.96251874,5f2e48f9498e160008a60d2d,6482ffc4da57468e3568a8f2,64e34529137fbfab85d9417d
f,0,6.237,0,23,23,23,1,resources/Slide35.BMP,3COE01,test11,j,410005,001,2023-08-21_13h15.27.737,drops_juice,2023.1.2,Win32,74.96251874,5f2e48f9498e160008a60d2d,6482ffc4da57468e3568a8f2,64e34529137fbfab85d9417d
f,0,5.654,0,24,24,24,1,resources/Slide100.BMP,8IEU11,test12,space,410005,001,2023-08-21_13h15.27.737,drops_juice,2023.1.2,Win32,74.96251874,5f2e48f9498e160008a60d2d,6482ffc4da57468e3568a8f2,64e34529137fbfab85d9417d
j,1,1.603,0,25,25,25,1,resources/Slide46.BMP,4COU01,test13,j,410005,001,2023-08-21_13h15.27.737,drops_juice,2023.1.2,Win32,74.96251874,5f2e48f9498e160008a60d2d,6482ffc4da57468e3568a8f2,64e34529137fbfab85d9417d
f,0,1.064,0,26,26,26,1,resources/Slide101.BMP,8IEU12,test14,space,410005,001,2023-08-21_13h15.27.737,drops_juice,2023.1.2,Win32,74.96251874,5f2e48f9498e160008a60d2d,6482ffc4da57468e3568a8f2,64e34529137fbfab85d9417d
space,1,1.866,0,27,27,27,1,resources/Slide79.BMP,7IEE01,test15,space,410005,001,2023-08-21_13h15.27.737,drops_juice,2023.1.2,Win32,74.96251874,5f2e48f9498e160008a60d2d,6482ffc4da57468e3568a8f2,64e34529137fbfab85d9417d
j,1,1.771,0,28,28,28,1,resources/Slide21.BMP,1DR09,test16,j,410005,001,2023-08-21_13h15.27.737,drops_juice,2023.1.2,Win32,74.96251874,5f2e48f9498e160008a60d2d,6482ffc4da57468e3568a8f2,64e34529137fbfab85d9417d
f,1,3.387,0,29,29,29,1,resources/Slide76.BMP,6IIU09,test17,f,410005,001,2023-08-21_13h15.27.737,drops_juice,2023.1.2,Win32,74.96251874,5f2e48f9498e160008a60d2d,6482ffc4da57468e3568a8f2,64e34529137fbfab85d9417d
space,0,4.614,0,30,30,30,1,resources/Slide44.BMP,3COE10,test18,f,410005,001,2023-08-21_13h15.27.737,drops_juice,2023.1.2,Win32,74.96251874,5f2e48f9498e160008a60d2d,6482ffc4da57468e3568a8f2,64e34529137fbfab85d9417d
f,0,2.57,0,31,31,31,1,resources/Slide57.BMP,5IIE01,test19,j,410005,001,2023-08-21_13h15.27.737,drops_juice,2023.1.2,Win32,74.96251874,5f2e48f9498e160008a60d2d,6482ffc4da57468e3568a8f2,64e34529137fbfab85d9417d
j,1,2.72,0,32,32,32,1,resources/Slide25.BMP,2IR02,test20,j,410005,001,2023-08-21_13h15.27.737,drops_juice,2023.1.2,Win32,74.96251874,5f2e48f9498e160008a60d2d,6482ffc4da57468e3568a8f2,64e34529137fbfab85d9417d
space,1,1.823,0,33,33,33,1,resources/Slide87.BMP,7IEE09,test21,space,410005,001,2023-08-21_13h15.27.737,drops_juice,2023.1.2,Win32,74.96251874,5f2e48f9498e160008a60d2d,6482ffc4da57468e3568a8f2,64e34529137fbfab85d9417d
space,0,3.886,0,34,34,34,1,resources/Slide66.BMP,5IIE10,test22,f,410005,001,2023-08-21_13h15.27.737,drops_juice,2023.1.2,Win32,74.96251874,5f2e48f9498e160008a60d2d,6482ffc4da57468e3568a8f2,64e34529137fbfab85d9417d
f,1,1.105,0,35,35,35,1,resources/Slide47.BMP,4COU02,test23,f,410005,001,2023-08-21_13h15.27.737,drops_juice,2023.1.2,Win32,74.96251874,5f2e48f9498e160008a60d2d,6482ffc4da57468e3568a8f2,64e34529137fbfab85d9417d
space,0,2.947,0,36,36,36,1,resources/Slide43.BMP,3COE09,test24,j,410005,001,2023-08-21_13h15.27.737,drops_juice,2023.1.2,Win32,74.96251874,5f2e48f9498e160008a60d2d,6482ffc4da57468e3568a8f2,64e34529137fbfab85d9417d
space,0,2.604,0,37,37,37,1,resources/Slide65.BMP,5IIE09,test25,j,410005,001,2023-08-21_13h15.27.737,drops_juice,2023.1.2,Win32,74.96251874,5f2e48f9498e160008a60d2d,6482ffc4da57468e3568a8f2,64e34529137fbfab85d9417d
f,1,3.467,0,38,38,38,1,resources/Slide24.BMP,2IR01,test26,f,410005,001,2023-08-21_13h15.27.737,drops_juice,2023.1.2,Win32,74.96251874,5f2e48f9498e160008a60d2d,6482ffc4da57468e3568a8f2,64e34529137fbfab85d9417d
f,1,1.201,0,39,39,39,1,resources/Slide22.BMP,1DR10,test27,f,410005,001,2023-08-21_13h15.27.737,drops_juice,2023.1.2,Win32,74.96251874,5f2e48f9498e160008a60d2d,6482ffc4da57468e3568a8f2,64e34529137fbfab85d9417d
j,1,2.358,0,40,40,40,1,resources/Slide69.BMP,6IIU02,test28,j,410005,001,2023-08-21_13h15.27.737,drops_juice,2023.1.2,Win32,74.96251874,5f2e48f9498e160008a60d2d,6482ffc4da57468e3568a8f2,64e34529137fbfab85d9417d
j,0,4.241,0,41,41,41,1,resources/Slide91.BMP,8IEU02,test29,space,410005,001,2023-08-21_13h15.27.737,drops_juice,2023.1.2,Win32,74.96251874,5f2e48f9498e160008a60d2d,6482ffc4da57468e3568a8f2,64e34529137fbfab85d9417d
j,1,1.413,0,42,42,42,1,resources/Slide13.BMP,1DR01,test30,j,410005,001,2023-08-21_13h15.27.737,drops_juice,2023.1.2,Win32,74.96251874,5f2e48f9498e160008a60d2d,6482ffc4da57468e3568a8f2,64e34529137fbfab85d9417d
j,1,1.022,0,43,43,43,1,resources/Slide54.BMP,4COU09,test31,j,410005,001,2023-08-21_13h15.27.737,drops_juice,2023.1.2,Win32,74.96251874,5f2e48f9498e160008a60d2d,6482ffc4da57468e3568a8f2,64e34529137fbfab85d9417d
space,0,2.039,0,44,44,44,1,resources/Slide58.BMP,5IIE02,test32,f,410005,001,2023-08-21_13h15.27.737,drops_juice,2023.1.2,Win32,74.96251874,5f2e48f9498e160008a60d2d,6482ffc4da57468e3568a8f2,64e34529137fbfab85d9417d
space,0,5.826,0,45,45,45,1,resources/Slide41.BMP,3COE07,test33,j,410005,001,2023-08-21_13h15.27.737,drops_juice,2023.1.2,Win32,74.96251874,5f2e48f9498e160008a60d2d,6482ffc4da57468e3568a8f2,64e34529137fbfab85d9417d
f,1,1.307,0,46,46,46,1,resources/Slide18.BMP,1DR06,test34,f,410005,001,2023-08-21_13h15.27.737,drops_juice,2023.1.2,Win32,74.96251874,5f2e48f9498e160008a60d2d,6482ffc4da57468e3568a8f2,64e34529137fbfab85d9417d
j,1,3.263,0,47,47,47,1,resources/Slide73.BMP,6IIU06,test35,j,410005,001,2023-08-21_13h15.27.737,drops_juice,2023.1.2,Win32,74.96251874,5f2e48f9498e160008a60d2d,6482ffc4da57468e3568a8f2,64e34529137fbfab85d9417d
f,1,2.469,0,48,48,48,1,resources/Slide26.BMP,2IR03,test36,f,410005,001,2023-08-21_13h15.27.737,drops_juice,2023.1.2,Win32,74.96251874,5f2e48f9498e160008a60d2d,6482ffc4da57468e3568a8f2,64e34529137fbfab85d9417d
j,0,1.319,0,49,49,49,1,resources/Slide92.BMP,8IEU03,test37,space,410005,001,2023-08-21_13h15.27.737,drops_juice,2023.1.2,Win32,74.96251874,5f2e48f9498e160008a60d2d,6482ffc4da57468e3568a8f2,64e34529137fbfab85d9417d
space,0,5.804,0,50,50,50,1,resources/Slide40.BMP,3COE06,test38,f,410005,001,2023-08-21_13h15.27.737,drops_juice,2023.1.2,Win32,74.96251874,5f2e48f9498e160008a60d2d,6482ffc4da57468e3568a8f2,64e34529137fbfab85d9417d
j,1,1.088,0,51,51,51,1,resources/Slide71.BMP,6IIU04,test39,j,410005,001,2023-08-21_13h15.27.737,drops_juice,2023.1.2,Win32,74.96251874,5f2e48f9498e160008a60d2d,6482ffc4da57468e3568a8f2,64e34529137fbfab85d9417d
f,1,2.294,0,52,52,52,1,resources/Slide28.BMP,2IR05,test40,f,410005,001,2023-08-21_13h15.27.737,drops_juice,2023.1.2,Win32,74.96251874,5f2e48f9498e160008a60d2d,6482ffc4da57468e3568a8f2,64e34529137fbfab85d9417d
space,0,3.244,0,53,53,53,1,resources/Slide38.BMP,3COE04,test41,f,410005,001,2023-08-21_13h15.27.737,drops_juice,2023.1.2,Win32,74.96251874,5f2e48f9498e160008a60d2d,6482ffc4da57468e3568a8f2,64e34529137fbfab85d9417d
f,0,2.496,0,54,54,54,1,resources/Slide94.BMP,8IEU05,test42,space,410005,001,2023-08-21_13h15.27.737,drops_juice,2023.1.2,Win32,74.96251874,5f2e48f9498e160008a60d2d,6482ffc4da57468e3568a8f2,64e34529137fbfab85d9417d
f,0,2.183,0,55,55,55,1,resources/Slide29.BMP,2IR06,test43,j,410005,001,2023-08-21_13h15.27.737,drops_juice,2023.1.2,Win32,74.96251874,5f2e48f9498e160008a60d2d,6482ffc4da57468e3568a8f2,64e34529137fbfab85d9417d
space,0,2.316,0,56,56,56,1,resources/Slide60.BMP,5IIE04,test44,f,410005,001,2023-08-21_13h15.27.737,drops_juice,2023.1.2,Win32,74.96251874,5f2e48f9498e160008a60d2d,6482ffc4da57468e3568a8f2,64e34529137fbfab85d9417d
f,1,3.96,0,57,57,57,1,resources/Slide70.BMP,6IIU03,test45,f,410005,001,2023-08-21_13h15.27.737,drops_juice,2023.1.2,Win32,74.96251874,5f2e48f9498e160008a60d2d,6482ffc4da57468e3568a8f2,64e34529137fbfab85d9417d
j,1,1.209,0,58,58,58,1,resources/Slide17.BMP,1DR05,test46,j,410005,001,2023-08-21_13h15.27.737,drops_juice,2023.1.2,Win32,74.96251874,5f2e48f9498e160008a60d2d,6482ffc4da57468e3568a8f2,64e34529137fbfab85d9417d
j,0,3.097,0,59,59,59,1,resources/Slide95.BMP,8IEU06,test47,space,410005,001,2023-08-21_13h15.27.737,drops_juice,2023.1.2,Win32,74.96251874,5f2e48f9498e160008a60d2d,6482ffc4da57468e3568a8f2,64e34529137fbfab85d9417d
space,0,2.025,0,60,60,60,1,resources/Slide37.BMP,3COE03,test48,j,410005,001,2023-08-21_13h15.27.737,drops_juice,2023.1.2,Win32,74.96251874,5f2e48f9498e160008a60d2d,6482ffc4da57468e3568a8f2,64e34529137fbfab85d9417d
space,1,2.551,0,61,61,61,1,resources/Slide81.BMP,7IEE03,test49,space,410005,001,2023-08-21_13h15.27.737,drops_juice,2023.1.2,Win32,74.96251874,5f2e48f9498e160008a60d2d,6482ffc4da57468e3568a8f2,64e34529137fbfab85d9417d
j,1,1.171,0,62,62,62,1,resources/Slide15.BMP,1DR03,test50,j,410005,001,2023-08-21_13h15.27.737,drops_juice,2023.1.2,Win32,74.96251874,5f2e48f9498e160008a60d2d,6482ffc4da57468e3568a8f2,64e34529137fbfab85d9417d
f,1,1.476,0,63,63,63,1,resources/Slide30.BMP,2IR07,test51,f,410005,001,2023-08-21_13h15.27.737,drops_juice,2023.1.2,Win32,74.96251874,5f2e48f9498e160008a60d2d,6482ffc4da57468e3568a8f2,64e34529137fbfab85d9417d
space,1,2.366,0,64,64,64,1,resources/Slide82.BMP,7IEE04,test52,space,410005,001,2023-08-21_13h15.27.737,drops_juice,2023.1.2,Win32,74.96251874,5f2e48f9498e160008a60d2d,6482ffc4da57468e3568a8f2,64e34529137fbfab85d9417d
f,1,1.762,0,65,65,65,1,resources/Slide16.BMP,1DR04,test53,f,410005,001,2023-08-21_13h15.27.737,drops_juice,2023.1.2,Win32,74.96251874,5f2e48f9498e160008a60d2d,6482ffc4da57468e3568a8f2,64e34529137fbfab85d9417d
space,1,1.334,0,66,66,66,1,resources/Slide84.BMP,7IEE06,test54,space,410005,001,2023-08-21_13h15.27.737,drops_juice,2023.1.2,Win32,74.96251874,5f2e48f9498e160008a60d2d,6482ffc4da57468e3568a8f2,64e34529137fbfab85d9417d
f,0,1.063,0,67,67,67,1,resources/Slide93.BMP,8IEU04,test55,space,410005,001,2023-08-21_13h15.27.737,drops_juice,2023.1.2,Win32,74.96251874,5f2e48f9498e160008a60d2d,6482ffc4da57468e3568a8f2,64e34529137fbfab85d9417d
j,1,0.912,0,68,68,68,1,resources/Slide48.BMP,4COU03,test56,j,410005,001,2023-08-21_13h15.27.737,drops_juice,2023.1.2,Win32,74.96251874,5f2e48f9498e160008a60d2d,6482ffc4da57468e3568a8f2,64e34529137fbfab85d9417d
space,1,1.939,0,69,69,69,1,resources/Slide85.BMP,7IEE07,test57,space,410005,001,2023-08-21_13h15.27.737,drops_juice,2023.1.2,Win32,74.96251874,5f2e48f9498e160008a60d2d,6482ffc4da57468e3568a8f2,64e34529137fbfab85d9417d
j,1,1.356,0,70,70,70,1,resources/Slide50.BMP,4COU05,test58,j,410005,001,2023-08-21_13h15.27.737,drops_juice,2023.1.2,Win32,74.96251874,5f2e48f9498e160008a60d2d,6482ffc4da57468e3568a8f2,64e34529137fbfab85d9417d
j,0,3.187,0,71,71,71,1,resources/Slide99.BMP,8IEU10,test59,space,410005,001,2023-08-21_13h15.27.737,drops_juice,2023.1.2,Win32,74.96251874,5f2e48f9498e160008a60d2d,6482ffc4da57468e3568a8f2,64e34529137fbfab85d9417d
space,0,2.903,0,72,72,72,1,resources/Slide39.BMP,3COE05,test60,j,410005,001,2023-08-21_13h15.27.737,drops_juice,2023.1.2,Win32,74.96251874,5f2e48f9498e160008a60d2d,6482ffc4da57468e3568a8f2,64e34529137fbfab85d9417d
f,1,4.249,0,73,73,73,1,resources/Slide72.BMP,6IIU05,test61,f,410005,001,2023-08-21_13h15.27.737,drops_juice,2023.1.2,Win32,74.96251874,5f2e48f9498e160008a60d2d,6482ffc4da57468e3568a8f2,64e34529137fbfab85d9417d
space,0,4.174,0,74,74,74,1,resources/Slide64.BMP,5IIE08,test62,f,410005,001,2023-08-21_13h15.27.737,drops_juice,2023.1.2,Win32,74.96251874,5f2e48f9498e160008a60d2d,6482ffc4da57468e3568a8f2,64e34529137fbfab85d9417d
j,1,2.304,0,75,75,75,1,resources/Slide31.BMP,2IR08,test63,j,410005,001,2023-08-21_13h15.27.737,drops_juice,2023.1.2,Win32,74.96251874,5f2e48f9498e160008a60d2d,6482ffc4da57468e3568a8f2,64e34529137fbfab85d9417d
j,0,1.039,0,76,76,76,1,resources/Slide62.BMP,5IIE06,test64,f,410005,001,2023-08-21_13h15.27.737,drops_juice,2023.1.2,Win32,74.96251874,5f2e48f9498e160008a60d2d,6482ffc4da57468e3568a8f2,64e34529137fbfab85d9417d
f,1,0.898,0,77,77,77,1,resources/Slide49.BMP,4COU04,test65,f,410005,001,2023-08-21_13h15.27.737,drops_juice,2023.1.2,Win32,74.96251874,5f2e48f9498e160008a60d2d,6482ffc4da57468e3568a8f2,64e34529137fbfab85d9417d
space,1,1.44,0,78,78,78,1,resources/Slide83.BMP,7IEE05,test66,space,410005,001,2023-08-21_13h15.27.737,drops_juice,2023.1.2,Win32,74.96251874,5f2e48f9498e160008a60d2d,6482ffc4da57468e3568a8f2,64e34529137fbfab85d9417d
space,0,1.989,0,79,79,79,1,resources/Slide59.BMP,5IIE03,test67,j,410005,001,2023-08-21_13h15.27.737,drops_juice,2023.1.2,Win32,74.96251874,5f2e48f9498e160008a60d2d,6482ffc4da57468e3568a8f2,64e34529137fbfab85d9417d
f,1,2.319,0,80,80,80,1,resources/Slide51.BMP,4COU06,test68,f,410005,001,2023-08-21_13h15.27.737,drops_juice,2023.1.2,Win32,74.96251874,5f2e48f9498e160008a60d2d,6482ffc4da57468e3568a8f2,64e34529137fbfab85d9417d
f,0,1.508,0,81,81,81,1,resources/Slide97.BMP,8IEU08,test69,space,410005,001,2023-08-21_13h15.27.737,drops_juice,2023.1.2,Win32,74.96251874,5f2e48f9498e160008a60d2d,6482ffc4da57468e3568a8f2,64e34529137fbfab85d9417d
f,1,2.372,0,82,82,82,1,resources/Slide20.BMP,1DR08,test70,f,410005,001,2023-08-21_13h15.27.737,drops_juice,2023.1.2,Win32,74.96251874,5f2e48f9498e160008a60d2d,6482ffc4da57468e3568a8f2,64e34529137fbfab85d9417d
space,1,2.836,0,83,83,83,1,resources/Slide98.BMP,8IEU09,test71,space,410005,001,2023-08-21_13h15.27.737,drops_juice,2023.1.2,Win32,74.96251874,5f2e48f9498e160008a60d2d,6482ffc4da57468e3568a8f2,64e34529137fbfab85d9417d
space,1,2.217,0,84,84,84,1,resources/Slide86.BMP,7IEE08,test72,space,410005,001,2023-08-21_13h15.27.737,drops_juice,2023.1.2,Win32,74.96251874,5f2e48f9498e160008a60d2d,6482ffc4da57468e3568a8f2,64e34529137fbfab85d9417d
j,1,0.689,0,85,85,85,1,resources/Slide52.BMP,4COU07,test73,j,410005,001,2023-08-21_13h15.27.737,drops_juice,2023.1.2,Win32,74.96251874,5f2e48f9498e160008a60d2d,6482ffc4da57468e3568a8f2,64e34529137fbfab85d9417d
space,0,2.974,0,86,86,86,1,resources/Slide63.BMP,5IIE07,test74,j,410005,001,2023-08-21_13h15.27.737,drops_juice,2023.1.2,Win32,74.96251874,5f2e48f9498e160008a60d2d,6482ffc4da57468e3568a8f2,64e34529137fbfab85d9417d
space,0,5.064,0,87,87,87,1,resources/Slide42.BMP,3COE08,test75,f,410005,001,2023-08-21_13h15.27.737,drops_juice,2023.1.2,Win32,74.96251874,5f2e48f9498e160008a60d2d,6482ffc4da57468e3568a8f2,64e34529137fbfab85d9417d
j,1,3.423,0,88,88,88,1,resources/Slide75.BMP,6IIU08,test76,j,410005,001,2023-08-21_13h15.27.737,drops_juice,2023.1.2,Win32,74.96251874,5f2e48f9498e160008a60d2d,6482ffc4da57468e3568a8f2,64e34529137fbfab85d9417d
j,0,1.469,0,89,89,89,1,resources/Slide96.BMP,8IEU07,test77,space,410005,001,2023-08-21_13h15.27.737,drops_juice,2023.1.2,Win32,74.96251874,5f2e48f9498e160008a60d2d,6482ffc4da57468e3568a8f2,64e34529137fbfab85d9417d
f,1,1.08,0,90,90,90,1,resources/Slide53.BMP,4COU08,test78,f,410005,001,2023-08-21_13h15.27.737,drops_juice,2023.1.2,Win32,74.96251874,5f2e48f9498e160008a60d2d,6482ffc4da57468e3568a8f2,64e34529137fbfab85d9417d
j,1,2.253,0,91,91,91,1,resources/Slide19.BMP,1DR07,test79,j,410005,001,2023-08-21_13h15.27.737,drops_juice,2023.1.2,Win32,74.96251874,5f2e48f9498e160008a60d2d,6482ffc4da57468e3568a8f2,64e34529137fbfab85d9417d
f,1,2.589,0,92,92,92,1,resources/Slide74.BMP,6IIU07,test80,f,410005,001,2023-08-21_13h15.27.737,drops_juice,2023.1.2,Win32,74.96251874,5f2e48f9498e160008a60d2d,6482ffc4da57468e3568a8f2,64e34529137fbfab85d9417d
j,1,5.214,0,93,93,93,1,resources/Slide61.BMP,5IIE05,test81,j,410005,001,2023-08-21_13h15.27.737,drops_juice,2023.1.2,Win32,74.96251874,5f2e48f9498e160008a60d2d,6482ffc4da57468e3568a8f2,64e34529137fbfab85d9417d
j,1,2.228,0,94,94,94,1,resources/Slide27.BMP,2IR04,test82,j,410005,001,2023-08-21_13h15.27.737,drops_juice,2023.1.2,Win32,74.96251874,5f2e48f9498e160008a60d2d,6482ffc4da57468e3568a8f2,64e34529137fbfab85d9417d
space,0,10.954,0,95,95,95,1,resources/Slide102.bmp,ins,end of test,,410005,001,2023-08-21_13h15.27.737,drops_juice,2023.1.2,Win32,74.96251874,5f2e48f9498e160008a60d2d,6482ffc4da57468e3568a8f2,64e34529137fbfab85d9417d
space,0,84.969,0,96,96,96,1,resources/Slide01.bmp,ins,instruction_g,,410005,001,2023-08-21_13h15.27.737,drops_juice,2023.1.2,Win32,74.96251874,5f2e48f9498e160008a60d2d,6482ffc4da57468e3568a8f2,64e34529137fbfab85d9417d
j,0,3.358,0,97,97,97,1,resources/Slide02.bmp,ins,practice_start,,410005,001,2023-08-21_13h15.27.737,drops_juice,2023.1.2,Win32,74.96251874,5f2e48f9498e160008a60d2d,6482ffc4da57468e3568a8f2,64e34529137fbfab85d9417d
j,1,1.653,0,98,98,98,1,resources/Slide03.BMP,1DR,pract1,j,410005,001,2023-08-21_13h15.27.737,drops_juice,2023.1.2,Win32,74.96251874,5f2e48f9498e160008a60d2d,6482ffc4da57468e3568a8f2,64e34529137fbfab85d9417d
f,1,1.552,0,99,99,99,1,resources/Slide04.BMP,2IR,pract2,f,410005,001,2023-08-21_13h15.27.737,drops_juice,2023.1.2,Win32,74.96251874,5f2e48f9498e160008a60d2d,6482ffc4da57468e3568a8f2,64e34529137fbfab85d9417d
f,0,2.297,0,100,100,100,1,resources/Slide05.BMP,8IEU,pract3,space,410005,001,2023-08-21_13h15.27.737,drops_juice,2023.1.2,Win32,74.96251874,5f2e48f9498e160008a60d2d,6482ffc4da57468e3568a8f2,64e34529137fbfab85d9417d
space,0,3.153,0,101,101,101,1,resources/Slide06.BMP,3COE,pract4,j,410005,001,2023-08-21_13h15.27.737,drops_juice,2023.1.2,Win32,74.96251874,5f2e48f9498e160008a60d2d,6482ffc4da57468e3568a8f2,64e34529137fbfab85d9417d
j,1,2.557,0,102,102,102,1,resources/Slide07.BMP,4COU,pract5,j,410005,001,2023-08-21_13h15.27.737,drops_juice,2023.1.2,Win32,74.96251874,5f2e48f9498e160008a60d2d,6482ffc4da57468e3568a8f2,64e34529137fbfab85d9417d
space,0,1.79,0,103,103,103,1,resources/Slide08.BMP,5IIE,pract6,f,410005,001,2023-08-21_13h15.27.737,drops_juice,2023.1.2,Win32,74.96251874,5f2e48f9498e160008a60d2d,6482ffc4da57468e3568a8f2,64e34529137fbfab85d9417d
space,0,5.071,0,104,104,104,1,resources/Slide09.BMP,6IIU,pract7,f,410005,001,2023-08-21_13h15.27.737,drops_juice,2023.1.2,Win32,74.96251874,5f2e48f9498e160008a60d2d,6482ffc4da57468e3568a8f2,64e34529137fbfab85d9417d
space,1,1.695,0,105,105,105,1,resources/Slide010.BMP,7IEE,pract8,space,410005,001,2023-08-21_13h15.27.737,drops_juice,2023.1.2,Win32,74.96251874,5f2e48f9498e160008a60d2d,6482ffc4da57468e3568a8f2,64e34529137fbfab85d9417d
space,0,1.172,0,106,106,106,1,resources/Slide011.bmp,ins,test_start,,410005,001,2023-08-21_13h15.27.737,drops_juice,2023.1.2,Win32,74.96251874,5f2e48f9498e160008a60d2d,6482ffc4da57468e3568a8f2,64e34529137fbfab85d9417d
j,1,0.938,0,107,107,107,1,resources/Slide03.BMP,1DR,dummy1,j,410005,001,2023-08-21_13h15.27.737,drops_juice,2023.1.2,Win32,74.96251874,5f2e48f9498e160008a60d2d,6482ffc4da57468e3568a8f2,64e34529137fbfab85d9417d
space,1,1.52,0,108,108,108,1,resources/Slide010.BMP,7IEE,dummy2,space,410005,001,2023-08-21_13h15.27.737,drops_juice,2023.1.2,Win32,74.96251874,5f2e48f9498e160008a60d2d,6482ffc4da57468e3568a8f2,64e34529137fbfab85d9417d
space,0,5.975,0,109,109,109,1,resources/Slide036.BMP,3COE02,test01,f,410005,001,2023-08-21_13h15.27.737,drops_juice,2023.1.2,Win32,74.96251874,5f2e48f9498e160008a60d2d,6482ffc4da57468e3568a8f2,64e34529137fbfab85d9417d
space,1,1.042,0,110,110,110,1,resources/Slide080.BMP,7IEE02,test02,space,410005,001,2023-08-21_13h15.27.737,drops_juice,2023.1.2,Win32,74.96251874,5f2e48f9498e160008a60d2d,6482ffc4da57468e3568a8f2,64e34529137fbfab85d9417d
f,1,1.776,0,111,111,111,1,resources/Slide055.BMP,4COU10,test03,f,410005,001,2023-08-21_13h15.27.737,drops_juice,2023.1.2,Win32,74.96251874,5f2e48f9498e160008a60d2d,6482ffc4da57468e3568a8f2,64e34529137fbfab85d9417d
j,1,2.285,0,112,112,112,1,resources/Slide077.BMP,6IIU10,test04,j,410005,001,2023-08-21_13h15.27.737,drops_juice,2023.1.2,Win32,74.96251874,5f2e48f9498e160008a60d2d,6482ffc4da57468e3568a8f2,64e34529137fbfab85d9417d
j,1,2.722,0,113,113,113,1,resources/Slide033.BMP,2IR10,test05,j,410005,001,2023-08-21_13h15.27.737,drops_juice,2023.1.2,Win32,74.96251874,5f2e48f9498e160008a60d2d,6482ffc4da57468e3568a8f2,64e34529137fbfab85d9417d
f,0,2.894,0,114,114,114,1,resources/Slide090.BMP,8IEU01,test06,space,410005,001,2023-08-21_13h15.27.737,drops_juice,2023.1.2,Win32,74.96251874,5f2e48f9498e160008a60d2d,6482ffc4da57468e3568a8f2,64e34529137fbfab85d9417d
f,1,2.611,0,115,115,115,1,resources/Slide014.BMP,1DR02,test07,f,410005,001,2023-08-21_13h15.27.737,drops_juice,2023.1.2,Win32,74.96251874,5f2e48f9498e160008a60d2d,6482ffc4da57468e3568a8f2,64e34529137fbfab85d9417d
space,1,1.115,0,116,116,116,1,resources/Slide088.BMP,7IEE10,test08,space,410005,001,2023-08-21_13h15.27.737,drops_juice,2023.1.2,Win32,74.96251874,5f2e48f9498e160008a60d2d,6482ffc4da57468e3568a8f2,64e34529137fbfab85d9417d
f,1,3.091,0,117,117,117,1,resources/Slide032.BMP,2IR09,test09,f,410005,001,2023-08-21_13h15.27.737,drops_juice,2023.1.2,Win32,74.96251874,5f2e48f9498e160008a60d2d,6482ffc4da57468e3568a8f2,64e34529137fbfab85d9417d
f,1,3.144,0,118,118,118,1,resources/Slide068.BMP,6IIU01,test10,f,410005,001,2023-08-21_13h15.27.737,drops_juice,2023.1.2,Win32,74.96251874,5f2e48f9498e160008a60d2d,6482ffc4da57468e3568a8f2,64e34529137fbfab85d9417d
space,0,3.999,0,119,119,119,1,resources/Slide035.BMP,3COE01,test11,j,410005,001,2023-08-21_13h15.27.737,drops_juice,2023.1.2,Win32,74.96251874,5f2e48f9498e160008a60d2d,6482ffc4da57468e3568a8f2,64e34529137fbfab85d9417d
j,0,1.691,0,120,120,120,1,resources/Slide0100.BMP,8IEU11,test12,space,410005,001,2023-08-21_13h15.27.737,drops_juice,2023.1.2,Win32,74.96251874,5f2e48f9498e160008a60d2d,6482ffc4da57468e3568a8f2,64e34529137fbfab85d9417d
j,1,1.346,0,121,121,121,1,resources/Slide046.BMP,4COU01,test13,j,410005,001,2023-08-21_13h15.27.737,drops_juice,2023.1.2,Win32,74.96251874,5f2e48f9498e160008a60d2d,6482ffc4da57468e3568a8f2,64e34529137fbfab85d9417d
f,0,1.182,0,122,122,122,1,resources/Slide0101.BMP,8IEU12,test14,space,410005,001,2023-08-21_13h15.27.737,drops_juice,2023.1.2,Win32,74.96251874,5f2e48f9498e160008a60d2d,6482ffc4da57468e3568a8f2,64e34529137fbfab85d9417d
space,1,1.03,0,123,123,123,1,resources/Slide079.BMP,7IEE01,test15,space,410005,001,2023-08-21_13h15.27.737,drops_juice,2023.1.2,Win32,74.96251874,5f2e48f9498e160008a60d2d,6482ffc4da57468e3568a8f2,64e34529137fbfab85d9417d
j,1,1.36,0,124,124,124,1,resources/Slide021.BMP,1DR09,test16,j,410005,001,2023-08-21_13h15.27.737,drops_juice,2023.1.2,Win32,74.96251874,5f2e48f9498e160008a60d2d,6482ffc4da57468e3568a8f2,64e34529137fbfab85d9417d
f,1,1.844,0,125,125,125,1,resources/Slide076.BMP,6IIU09,test17,f,410005,001,2023-08-21_13h15.27.737,drops_juice,2023.1.2,Win32,74.96251874,5f2e48f9498e160008a60d2d,6482ffc4da57468e3568a8f2,64e34529137fbfab85d9417d
space,0,1.842,0,126,126,126,1,resources/Slide044.BMP,3COE10,test18,f,410005,001,2023-08-21_13h15.27.737,drops_juice,2023.1.2,Win32,74.96251874,5f2e48f9498e160008a60d2d,6482ffc4da57468e3568a8f2,64e34529137fbfab85d9417d
space,0,10.446,0,127,127,127,1,resources/Slide057.BMP,5IIE01,test19,j,410005,001,2023-08-21_13h15.27.737,drops_juice,2023.1.2,Win32,74.96251874,5f2e48f9498e160008a60d2d,6482ffc4da57468e3568a8f2,64e34529137fbfab85d9417d
j,1,2.749,0,128,128,128,1,resources/Slide025.BMP,2IR02,test20,j,410005,001,2023-08-21_13h15.27.737,drops_juice,2023.1.2,Win32,74.96251874,5f2e48f9498e160008a60d2d,6482ffc4da57468e3568a8f2,64e34529137fbfab85d9417d
space,1,2.37,0,129,129,129,1,resources/Slide087.BMP,7IEE09,test21,space,410005,001,2023-08-21_13h15.27.737,drops_juice,2023.1.2,Win32,74.96251874,5f2e48f9498e160008a60d2d,6482ffc4da57468e3568a8f2,64e34529137fbfab85d9417d
space,0,4.126,0,130,130,130,1,resources/Slide066.BMP,5IIE10,test22,f,410005,001,2023-08-21_13h15.27.737,drops_juice,2023.1.2,Win32,74.96251874,5f2e48f9498e160008a60d2d,6482ffc4da57468e3568a8f2,64e34529137fbfab85d9417d
f,1,0.849,0,131,131,131,1,resources/Slide047.BMP,4COU02,test23,f,410005,001,2023-08-21_13h15.27.737,drops_juice,2023.1.2,Win32,74.96251874,5f2e48f9498e160008a60d2d,6482ffc4da57468e3568a8f2,64e34529137fbfab85d9417d
space,0,4.672,0,132,132,132,1,resources/Slide043.BMP,3COE09,test24,j,410005,001,2023-08-21_13h15.27.737,drops_juice,2023.1.2,Win32,74.96251874,5f2e48f9498e160008a60d2d,6482ffc4da57468e3568a8f2,64e34529137fbfab85d9417d
space,0,1.778,0,133,133,133,1,resources/Slide065.BMP,5IIE09,test25,j,410005,001,2023-08-21_13h15.27.737,drops_juice,2023.1.2,Win32,74.96251874,5f2e48f9498e160008a60d2d,6482ffc4da57468e3568a8f2,64e34529137fbfab85d9417d
f,1,2.633,0,134,134,134,1,resources/Slide024.BMP,2IR01,test26,f,410005,001,2023-08-21_13h15.27.737,drops_juice,2023.1.2,Win32,74.96251874,5f2e48f9498e160008a60d2d,6482ffc4da57468e3568a8f2,64e34529137fbfab85d9417d
f,1,1.241,0,135,135,135,1,resources/Slide022.BMP,1DR10,test27,f,410005,001,2023-08-21_13h15.27.737,drops_juice,2023.1.2,Win32,74.96251874,5f2e48f9498e160008a60d2d,6482ffc4da57468e3568a8f2,64e34529137fbfab85d9417d
j,1,2.249,0,136,136,136,1,resources/Slide069.BMP,6IIU02,test28,j,410005,001,2023-08-21_13h15.27.737,drops_juice,2023.1.2,Win32,74.96251874,5f2e48f9498e160008a60d2d,6482ffc4da57468e3568a8f2,64e34529137fbfab85d9417d
j,0,2.749,0,137,137,137,1,resources/Slide091.BMP,8IEU02,test29,space,410005,001,2023-08-21_13h15.27.737,drops_juice,2023.1.2,Win32,74.96251874,5f2e48f9498e160008a60d2d,6482ffc4da57468e3568a8f2,64e34529137fbfab85d9417d
j,1,2.455,0,138,138,138,1,resources/Slide013.BMP,1DR01,test30,j,410005,001,2023-08-21_13h15.27.737,drops_juice,2023.1.2,Win32,74.96251874,5f2e48f9498e160008a60d2d,6482ffc4da57468e3568a8f2,64e34529137fbfab85d9417d
j,1,1.037,0,139,139,139,1,resources/Slide054.BMP,4COU09,test31,j,410005,001,2023-08-21_13h15.27.737,drops_juice,2023.1.2,Win32,74.96251874,5f2e48f9498e160008a60d2d,6482ffc4da57468e3568a8f2,64e34529137fbfab85d9417d
f,1,9.217,0,140,140,140,1,resources/Slide058.BMP,5IIE02,test32,f,410005,001,2023-08-21_13h15.27.737,drops_juice,2023.1.2,Win32,74.96251874,5f2e48f9498e160008a60d2d,6482ffc4da57468e3568a8f2,64e34529137fbfab85d9417d
space,0,4.067,0,141,141,141,1,resources/Slide041.BMP,3COE07,test33,j,410005,001,2023-08-21_13h15.27.737,drops_juice,2023.1.2,Win32,74.96251874,5f2e48f9498e160008a60d2d,6482ffc4da57468e3568a8f2,64e34529137fbfab85d9417d
f,1,0.99,0,142,142,142,1,resources/Slide018.BMP,1DR06,test34,f,410005,001,2023-08-21_13h15.27.737,drops_juice,2023.1.2,Win32,74.96251874,5f2e48f9498e160008a60d2d,6482ffc4da57468e3568a8f2,64e34529137fbfab85d9417d
j,1,2.4,0,143,143,143,1,resources/Slide073.BMP,6IIU06,test35,j,410005,001,2023-08-21_13h15.27.737,drops_juice,2023.1.2,Win32,74.96251874,5f2e48f9498e160008a60d2d,6482ffc4da57468e3568a8f2,64e34529137fbfab85d9417d
f,1,2.389,0,144,144,144,1,resources/Slide026.BMP,2IR03,test36,f,410005,001,2023-08-21_13h15.27.737,drops_juice,2023.1.2,Win32,74.96251874,5f2e48f9498e160008a60d2d,6482ffc4da57468e3568a8f2,64e34529137fbfab85d9417d
space,1,2.295,0,145,145,145,1,resources/Slide092.BMP,8IEU03,test37,space,410005,001,2023-08-21_13h15.27.737,drops_juice,2023.1.2,Win32,74.96251874,5f2e48f9498e160008a60d2d,6482ffc4da57468e3568a8f2,64e34529137fbfab85d9417d
space,0,8.3,0,146,146,146,1,resources/Slide040.BMP,3COE06,test38,f,410005,001,2023-08-21_13h15.27.737,drops_juice,2023.1.2,Win32,74.96251874,5f2e48f9498e160008a60d2d,6482ffc4da57468e3568a8f2,64e34529137fbfab85d9417d
j,1,2.796,0,147,147,147,1,resources/Slide071.BMP,6IIU04,test39,j,410005,001,2023-08-21_13h15.27.737,drops_juice,2023.1.2,Win32,74.96251874,5f2e48f9498e160008a60d2d,6482ffc4da57468e3568a8f2,64e34529137fbfab85d9417d
f,1,2.455,0,148,148,148,1,resources/Slide028.BMP,2IR05,test40,f,410005,001,2023-08-21_13h15.27.737,drops_juice,2023.1.2,Win32,74.96251874,5f2e48f9498e160008a60d2d,6482ffc4da57468e3568a8f2,64e34529137fbfab85d9417d
space,0,3.772,0,149,149,149,1,resources/Slide038.BMP,3COE04,test41,f,410005,001,2023-08-21_13h15.27.737,drops_juice,2023.1.2,Win32,74.96251874,5f2e48f9498e160008a60d2d,6482ffc4da57468e3568a8f2,64e34529137fbfab85d9417d
f,0,4.882,0,150,150,150,1,resources/Slide094.BMP,8IEU05,test42,space,410005,001,2023-08-21_13h15.27.737,drops_juice,2023.1.2,Win32,74.96251874,5f2e48f9498e160008a60d2d,6482ffc4da57468e3568a8f2,64e34529137fbfab85d9417d
j,1,1.413,0,151,151,151,1,resources/Slide029.BMP,2IR06,test43,j,410005,001,2023-08-21_13h15.27.737,drops_juice,2023.1.2,Win32,74.96251874,5f2e48f9498e160008a60d2d,6482ffc4da57468e3568a8f2,64e34529137fbfab85d9417d
space,0,1.813,0,152,152,152,1,resources/Slide060.BMP,5IIE04,test44,f,410005,001,2023-08-21_13h15.27.737,drops_juice,2023.1.2,Win32,74.96251874,5f2e48f9498e160008a60d2d,6482ffc4da57468e3568a8f2,64e34529137fbfab85d9417d
f,1,1.347,0,153,153,153,1,resources/Slide070.BMP,6IIU03,test45,f,410005,001,2023-08-21_13h15.27.737,drops_juice,2023.1.2,Win32,74.96251874,5f2e48f9498e160008a60d2d,6482ffc4da57468e3568a8f2,64e34529137fbfab85d9417d
j,1,1.909,0,154,154,154,1,resources/Slide017.BMP,1DR05,test46,j,410005,001,2023-08-21_13h15.27.737,drops_juice,2023.1.2,Win32,74.96251874,5f2e48f9498e160008a60d2d,6482ffc4da57468e3568a8f2,64e34529137fbfab85d9417d
j,0,2.209,0,155,155,155,1,resources/Slide095.BMP,8IEU06,test47,space,410005,001,2023-08-21_13h15.27.737,drops_juice,2023.1.2,Win32,74.96251874,5f2e48f9498e160008a60d2d,6482ffc4da57468e3568a8f2,64e34529137fbfab85d9417d
space,0,3.134,0,156,156,156,1,resources/Slide037.BMP,3COE03,test48,j,410005,001,2023-08-21_13h15.27.737,drops_juice,2023.1.2,Win32,74.96251874,5f2e48f9498e160008a60d2d,6482ffc4da57468e3568a8f2,64e34529137fbfab85d9417d
space,1,2.028,0,157,157,157,1,resources/Slide081.BMP,7IEE03,test49,space,410005,001,2023-08-21_13h15.27.737,drops_juice,2023.1.2,Win32,74.96251874,5f2e48f9498e160008a60d2d,6482ffc4da57468e3568a8f2,64e34529137fbfab85d9417d
j,1,0.838,0,158,158,158,1,resources/Slide015.BMP,1DR03,test50,j,410005,001,2023-08-21_13h15.27.737,drops_juice,2023.1.2,Win32,74.96251874,5f2e48f9498e160008a60d2d,6482ffc4da57468e3568a8f2,64e34529137fbfab85d9417d
f,1,1.439,0,159,159,159,1,resources/Slide030.BMP,2IR07,test51,f,410005,001,2023-08-21_13h15.27.737,drops_juice,2023.1.2,Win32,74.96251874,5f2e48f9498e160008a60d2d,6482ffc4da57468e3568a8f2,64e34529137fbfab85d9417d
space,1,1.518,0,160,160,160,1,resources/Slide082.BMP,7IEE04,test52,space,410005,001,2023-08-21_13h15.27.737,drops_juice,2023.1.2,Win32,74.96251874,5f2e48f9498e160008a60d2d,6482ffc4da57468e3568a8f2,64e34529137fbfab85d9417d
f,1,2.724,0,161,161,161,1,resources/Slide016.BMP,1DR04,test53,f,410005,001,2023-08-21_13h15.27.737,drops_juice,2023.1.2,Win32,74.96251874,5f2e48f9498e160008a60d2d,6482ffc4da57468e3568a8f2,64e34529137fbfab85d9417d
space,1,1.319,0,162,162,162,1,resources/Slide084.BMP,7IEE06,test54,space,410005,001,2023-08-21_13h15.27.737,drops_juice,2023.1.2,Win32,74.96251874,5f2e48f9498e160008a60d2d,6482ffc4da57468e3568a8f2,64e34529137fbfab85d9417d
f,0,2.544,0,163,163,163,1,resources/Slide093.BMP,8IEU04,test55,space,410005,001,2023-08-21_13h15.27.737,drops_juice,2023.1.2,Win32,74.96251874,5f2e48f9498e160008a60d2d,6482ffc4da57468e3568a8f2,64e34529137fbfab85d9417d
j,1,1.089,0,164,164,164,1,resources/Slide048.BMP,4COU03,test56,j,410005,001,2023-08-21_13h15.27.737,drops_juice,2023.1.2,Win32,74.96251874,5f2e48f9498e160008a60d2d,6482ffc4da57468e3568a8f2,64e34529137fbfab85d9417d
space,1,1.134,0,165,165,165,1,resources/Slide085.BMP,7IEE07,test57,space,410005,001,2023-08-21_13h15.27.737,drops_juice,2023.1.2,Win32,74.96251874,5f2e48f9498e160008a60d2d,6482ffc4da57468e3568a8f2,64e34529137fbfab85d9417d
j,1,2.822,0,166,166,166,1,resources/Slide050.BMP,4COU05,test58,j,410005,001,2023-08-21_13h15.27.737,drops_juice,2023.1.2,Win32,74.96251874,5f2e48f9498e160008a60d2d,6482ffc4da57468e3568a8f2,64e34529137fbfab85d9417d
j,0,2.397,0,167,167,167,1,resources/Slide099.BMP,8IEU10,test59,space,410005,001,2023-08-21_13h15.27.737,drops_juice,2023.1.2,Win32,74.96251874,5f2e48f9498e160008a60d2d,6482ffc4da57468e3568a8f2,64e34529137fbfab85d9417d
space,0,4.837,0,168,168,168,1,resources/Slide039.BMP,3COE05,test60,j,410005,001,2023-08-21_13h15.27.737,drops_juice,2023.1.2,Win32,74.96251874,5f2e48f9498e160008a60d2d,6482ffc4da57468e3568a8f2,64e34529137fbfab85d9417d
f,1,1.982,0,169,169,169,1,resources/Slide072.BMP,6IIU05,test61,f,410005,001,2023-08-21_13h15.27.737,drops_juice,2023.1.2,Win32,74.96251874,5f2e48f9498e160008a60d2d,6482ffc4da57468e3568a8f2,64e34529137fbfab85d9417d
space,0,4.2,0,170,170,170,1,resources/Slide064.BMP,5IIE08,test62,f,410005,001,2023-08-21_13h15.27.737,drops_juice,2023.1.2,Win32,74.96251874,5f2e48f9498e160008a60d2d,6482ffc4da57468e3568a8f2,64e34529137fbfab85d9417d
j,1,1.587,0,171,171,171,1,resources/Slide031.BMP,2IR08,test63,j,410005,001,2023-08-21_13h15.27.737,drops_juice,2023.1.2,Win32,74.96251874,5f2e48f9498e160008a60d2d,6482ffc4da57468e3568a8f2,64e34529137fbfab85d9417d
space,0,4.764,0,172,172,172,1,resources/Slide062.BMP,5IIE06,test64,f,410005,001,2023-08-21_13h15.27.737,drops_juice,2023.1.2,Win32,74.96251874,5f2e48f9498e160008a60d2d,6482ffc4da57468e3568a8f2,64e34529137fbfab85d9417d
f,1,0.839,0,173,173,173,1,resources/Slide049.BMP,4COU04,test65,f,410005,001,2023-08-21_13h15.27.737,drops_juice,2023.1.2,Win32,74.96251874,5f2e48f9498e160008a60d2d,6482ffc4da57468e3568a8f2,64e34529137fbfab85d9417d
space,1,1.542,0,174,174,174,1,resources/Slide083.BMP,7IEE05,test66,space,410005,001,2023-08-21_13h15.27.737,drops_juice,2023.1.2,Win32,74.96251874,5f2e48f9498e160008a60d2d,6482ffc4da57468e3568a8f2,64e34529137fbfab85d9417d
space,0,1.815,0,175,175,175,1,resources/Slide059.BMP,5IIE03,test67,j,410005,001,2023-08-21_13h15.27.737,drops_juice,2023.1.2,Win32,74.96251874,5f2e48f9498e160008a60d2d,6482ffc4da57468e3568a8f2,64e34529137fbfab85d9417d
f,1,1.827,0,176,176,176,1,resources/Slide051.BMP,4COU06,test68,f,410005,001,2023-08-21_13h15.27.737,drops_juice,2023.1.2,Win32,74.96251874,5f2e48f9498e160008a60d2d,6482ffc4da57468e3568a8f2,64e34529137fbfab85d9417d
f,0,3.253,0,177,177,177,1,resources/Slide097.BMP,8IEU08,test69,space,410005,001,2023-08-21_13h15.27.737,drops_juice,2023.1.2,Win32,74.96251874,5f2e48f9498e160008a60d2d,6482ffc4da57468e3568a8f2,64e34529137fbfab85d9417d
f,1,1.828,0,178,178,178,1,resources/Slide020.BMP,1DR08,test70,f,410005,001,2023-08-21_13h15.27.737,drops_juice,2023.1.2,Win32,74.96251874,5f2e48f9498e160008a60d2d,6482ffc4da57468e3568a8f2,64e34529137fbfab85d9417d
f,0,2.96,0,179,179,179,1,resources/Slide098.BMP,8IEU09,test71,space,410005,001,2023-08-21_13h15.27.737,drops_juice,2023.1.2,Win32,74.96251874,5f2e48f9498e160008a60d2d,6482ffc4da57468e3568a8f2,64e34529137fbfab85d9417d
space,1,1.443,0,180,180,180,1,resources/Slide086.BMP,7IEE08,test72,space,410005,001,2023-08-21_13h15.27.737,drops_juice,2023.1.2,Win32,74.96251874,5f2e48f9498e160008a60d2d,6482ffc4da57468e3568a8f2,64e34529137fbfab85d9417d
j,1,2.13,0,181,181,181,1,resources/Slide052.BMP,4COU07,test73,j,410005,001,2023-08-21_13h15.27.737,drops_juice,2023.1.2,Win32,74.96251874,5f2e48f9498e160008a60d2d,6482ffc4da57468e3568a8f2,64e34529137fbfab85d9417d
j,1,2.983,0,182,182,182,1,resources/Slide063.BMP,5IIE07,test74,j,410005,001,2023-08-21_13h15.27.737,drops_juice,2023.1.2,Win32,74.96251874,5f2e48f9498e160008a60d2d,6482ffc4da57468e3568a8f2,64e34529137fbfab85d9417d
space,0,2.712,0,183,183,183,1,resources/Slide042.BMP,3COE08,test75,f,410005,001,2023-08-21_13h15.27.737,drops_juice,2023.1.2,Win32,74.96251874,5f2e48f9498e160008a60d2d,6482ffc4da57468e3568a8f2,64e34529137fbfab85d9417d
j,1,2.401,0,184,184,184,1,resources/Slide075.BMP,6IIU08,test76,j,410005,001,2023-08-21_13h15.27.737,drops_juice,2023.1.2,Win32,74.96251874,5f2e48f9498e160008a60d2d,6482ffc4da57468e3568a8f2,64e34529137fbfab85d9417d
j,0,2.723,0,185,185,185,1,resources/Slide096.BMP,8IEU07,test77,space,410005,001,2023-08-21_13h15.27.737,drops_juice,2023.1.2,Win32,74.96251874,5f2e48f9498e160008a60d2d,6482ffc4da57468e3568a8f2,64e34529137fbfab85d9417d
f,1,1.449,0,186,186,186,1,resources/Slide053.BMP,4COU08,test78,f,410005,001,2023-08-21_13h15.27.737,drops_juice,2023.1.2,Win32,74.96251874,5f2e48f9498e160008a60d2d,6482ffc4da57468e3568a8f2,64e34529137fbfab85d9417d
j,1,3.792,0,187,187,187,1,resources/Slide019.BMP,1DR07,test79,j,410005,001,2023-08-21_13h15.27.737,drops_juice,2023.1.2,Win32,74.96251874,5f2e48f9498e160008a60d2d,6482ffc4da57468e3568a8f2,64e34529137fbfab85d9417d
f,1,1.464,0,188,188,188,1,resources/Slide074.BMP,6IIU07,test80,f,410005,001,2023-08-21_13h15.27.737,drops_juice,2023.1.2,Win32,74.96251874,5f2e48f9498e160008a60d2d,6482ffc4da57468e3568a8f2,64e34529137fbfab85d9417d
space,0,7.107,0,189,189,189,1,resources/Slide061.BMP,5IIE05,test81,j,410005,001,2023-08-21_13h15.27.737,drops_juice,2023.1.2,Win32,74.96251874,5f2e48f9498e160008a60d2d,6482ffc4da57468e3568a8f2,64e34529137fbfab85d9417d
j,1,2.077,0,190,190,190,1,resources/Slide027.BMP,2IR04,test82,j,410005,001,2023-08-21_13h15.27.737,drops_juice,2023.1.2,Win32,74.96251874,5f2e48f9498e160008a60d2d,6482ffc4da57468e3568a8f2,64e34529137fbfab85d9417d
f,0,3.846,0,191,191,191,1,resources/Slide0102.bmp,ins,end of test,,410005,001,2023-08-21_13h15.27.737,drops_juice,2023.1.2,Win32,74.96251874,5f2e48f9498e160008a60d2d,6482ffc4da57468e3568a8f2,64e34529137fbfab85d9417d
