response.keys,response.corr,response.rt,trials.thisRepN,trials.thisTrialN,trials.thisN,trials.thisIndex,trials.ran,TrialName,Cond,Event,CorrAns,participant,session,date,expName,psychopyVersion,OS,frameRate,PROLIFIC_PID,STUDY_ID,SESSION_ID
space,0,23.4882,0,0,0,0,1,resources/Slide1.bmp,ins,instruction_g,,416570,001,2023-06-11_09h22.53.023,drops_juice,2023.1.2,Win32,59.81218972,5eb152b9d01b0a0464dce3c4,6482ffc4da57468e3568a8f2,64857404e41b87c693be523c
j,0,6.5268,0,1,1,1,1,resources/Slide2.bmp,ins,practice_start,,416570,001,2023-06-11_09h22.53.023,drops_juice,2023.1.2,Win32,59.81218972,5eb152b9d01b0a0464dce3c4,6482ffc4da57468e3568a8f2,64857404e41b87c693be523c
j,1,1.8822,0,2,2,2,1,resources/Slide3.BMP,1DR,pract1,j,416570,001,2023-06-11_09h22.53.023,drops_juice,2023.1.2,Win32,59.81218972,5eb152b9d01b0a0464dce3c4,6482ffc4da57468e3568a8f2,64857404e41b87c693be523c
space,0,1.9847,0,3,3,3,1,resources/Slide4.BMP,2IR,pract2,f,416570,001,2023-06-11_09h22.53.023,drops_juice,2023.1.2,Win32,59.81218972,5eb152b9d01b0a0464dce3c4,6482ffc4da57468e3568a8f2,64857404e41b87c693be523c
j,0,3.6059,0,4,4,4,1,resources/Slide5.BMP,8IEU,pract3,space,416570,001,2023-06-11_09h22.53.023,drops_juice,2023.1.2,Win32,59.81218972,5eb152b9d01b0a0464dce3c4,6482ffc4da57468e3568a8f2,64857404e41b87c693be523c
j,1,1.1882,0,5,5,5,1,resources/Slide6.BMP,3COE,pract4,j,416570,001,2023-06-11_09h22.53.023,drops_juice,2023.1.2,Win32,59.81218972,5eb152b9d01b0a0464dce3c4,6482ffc4da57468e3568a8f2,64857404e41b87c693be523c
j,1,0.7676,0,6,6,6,1,resources/Slide7.BMP,4COU,pract5,j,416570,001,2023-06-11_09h22.53.023,drops_juice,2023.1.2,Win32,59.81218972,5eb152b9d01b0a0464dce3c4,6482ffc4da57468e3568a8f2,64857404e41b87c693be523c
j,0,0.6598,0,7,7,7,1,resources/Slide8.BMP,5IIE,pract6,f,416570,001,2023-06-11_09h22.53.023,drops_juice,2023.1.2,Win32,59.81218972,5eb152b9d01b0a0464dce3c4,6482ffc4da57468e3568a8f2,64857404e41b87c693be523c
j,0,0.6033,0,8,8,8,1,resources/Slide9.BMP,6IIU,pract7,f,416570,001,2023-06-11_09h22.53.023,drops_juice,2023.1.2,Win32,59.81218972,5eb152b9d01b0a0464dce3c4,6482ffc4da57468e3568a8f2,64857404e41b87c693be523c
j,0,0.5755,0,9,9,9,1,resources/Slide10.BMP,7IEE,pract8,space,416570,001,2023-06-11_09h22.53.023,drops_juice,2023.1.2,Win32,59.81218972,5eb152b9d01b0a0464dce3c4,6482ffc4da57468e3568a8f2,64857404e41b87c693be523c
space,0,4.8407,0,10,10,10,1,resources/Slide11.bmp,ins,test_start,,416570,001,2023-06-11_09h22.53.023,drops_juice,2023.1.2,Win32,59.81218972,5eb152b9d01b0a0464dce3c4,6482ffc4da57468e3568a8f2,64857404e41b87c693be523c
j,1,0.9478,0,11,11,11,1,resources/Slide3.BMP,1DR,dummy1,j,416570,001,2023-06-11_09h22.53.023,drops_juice,2023.1.2,Win32,59.81218972,5eb152b9d01b0a0464dce3c4,6482ffc4da57468e3568a8f2,64857404e41b87c693be523c
j,0,0.8528,0,12,12,12,1,resources/Slide10.BMP,7IEE,dummy2,space,416570,001,2023-06-11_09h22.53.023,drops_juice,2023.1.2,Win32,59.81218972,5eb152b9d01b0a0464dce3c4,6482ffc4da57468e3568a8f2,64857404e41b87c693be523c
f,1,1.0626,0,13,13,13,1,resources/Slide36.BMP,3COE02,test01,f,416570,001,2023-06-11_09h22.53.023,drops_juice,2023.1.2,Win32,59.81218972,5eb152b9d01b0a0464dce3c4,6482ffc4da57468e3568a8f2,64857404e41b87c693be523c
f,0,0.8449,0,14,14,14,1,resources/Slide80.BMP,7IEE02,test02,space,416570,001,2023-06-11_09h22.53.023,drops_juice,2023.1.2,Win32,59.81218972,5eb152b9d01b0a0464dce3c4,6482ffc4da57468e3568a8f2,64857404e41b87c693be523c
f,1,0.7787,0,15,15,15,1,resources/Slide55.BMP,4COU10,test03,f,416570,001,2023-06-11_09h22.53.023,drops_juice,2023.1.2,Win32,59.81218972,5eb152b9d01b0a0464dce3c4,6482ffc4da57468e3568a8f2,64857404e41b87c693be523c
f,0,0.6096,0,16,16,16,1,resources/Slide77.BMP,6IIU10,test04,j,416570,001,2023-06-11_09h22.53.023,drops_juice,2023.1.2,Win32,59.81218972,5eb152b9d01b0a0464dce3c4,6482ffc4da57468e3568a8f2,64857404e41b87c693be523c
j,1,0.7972,0,17,17,17,1,resources/Slide33.BMP,2IR10,test05,j,416570,001,2023-06-11_09h22.53.023,drops_juice,2023.1.2,Win32,59.81218972,5eb152b9d01b0a0464dce3c4,6482ffc4da57468e3568a8f2,64857404e41b87c693be523c
j,0,0.4605,0,18,18,18,1,resources/Slide90.BMP,8IEU01,test06,space,416570,001,2023-06-11_09h22.53.023,drops_juice,2023.1.2,Win32,59.81218972,5eb152b9d01b0a0464dce3c4,6482ffc4da57468e3568a8f2,64857404e41b87c693be523c
f,1,0.544,0,19,19,19,1,resources/Slide14.BMP,1DR02,test07,f,416570,001,2023-06-11_09h22.53.023,drops_juice,2023.1.2,Win32,59.81218972,5eb152b9d01b0a0464dce3c4,6482ffc4da57468e3568a8f2,64857404e41b87c693be523c
j,0,0.6738,0,20,20,20,1,resources/Slide88.BMP,7IEE10,test08,space,416570,001,2023-06-11_09h22.53.023,drops_juice,2023.1.2,Win32,59.81218972,5eb152b9d01b0a0464dce3c4,6482ffc4da57468e3568a8f2,64857404e41b87c693be523c
space,0,0.5935,0,21,21,21,1,resources/Slide32.BMP,2IR09,test09,f,416570,001,2023-06-11_09h22.53.023,drops_juice,2023.1.2,Win32,59.81218972,5eb152b9d01b0a0464dce3c4,6482ffc4da57468e3568a8f2,64857404e41b87c693be523c
j,0,0.7485,0,22,22,22,1,resources/Slide68.BMP,6IIU01,test10,f,416570,001,2023-06-11_09h22.53.023,drops_juice,2023.1.2,Win32,59.81218972,5eb152b9d01b0a0464dce3c4,6482ffc4da57468e3568a8f2,64857404e41b87c693be523c
j,1,0.4794,0,23,23,23,1,resources/Slide35.BMP,3COE01,test11,j,416570,001,2023-06-11_09h22.53.023,drops_juice,2023.1.2,Win32,59.81218972,5eb152b9d01b0a0464dce3c4,6482ffc4da57468e3568a8f2,64857404e41b87c693be523c
j,0,0.7213,0,24,24,24,1,resources/Slide100.BMP,8IEU11,test12,space,416570,001,2023-06-11_09h22.53.023,drops_juice,2023.1.2,Win32,59.81218972,5eb152b9d01b0a0464dce3c4,6482ffc4da57468e3568a8f2,64857404e41b87c693be523c
j,1,1.4543,0,25,25,25,1,resources/Slide46.BMP,4COU01,test13,j,416570,001,2023-06-11_09h22.53.023,drops_juice,2023.1.2,Win32,59.81218972,5eb152b9d01b0a0464dce3c4,6482ffc4da57468e3568a8f2,64857404e41b87c693be523c
f,0,0.4925,0,26,26,26,1,resources/Slide101.BMP,8IEU12,test14,space,416570,001,2023-06-11_09h22.53.023,drops_juice,2023.1.2,Win32,59.81218972,5eb152b9d01b0a0464dce3c4,6482ffc4da57468e3568a8f2,64857404e41b87c693be523c
j,0,0.8171,0,27,27,27,1,resources/Slide79.BMP,7IEE01,test15,space,416570,001,2023-06-11_09h22.53.023,drops_juice,2023.1.2,Win32,59.81218972,5eb152b9d01b0a0464dce3c4,6482ffc4da57468e3568a8f2,64857404e41b87c693be523c
j,1,0.7075,0,28,28,28,1,resources/Slide21.BMP,1DR09,test16,j,416570,001,2023-06-11_09h22.53.023,drops_juice,2023.1.2,Win32,59.81218972,5eb152b9d01b0a0464dce3c4,6482ffc4da57468e3568a8f2,64857404e41b87c693be523c
j,0,0.8264,0,29,29,29,1,resources/Slide76.BMP,6IIU09,test17,f,416570,001,2023-06-11_09h22.53.023,drops_juice,2023.1.2,Win32,59.81218972,5eb152b9d01b0a0464dce3c4,6482ffc4da57468e3568a8f2,64857404e41b87c693be523c
f,1,0.603,0,30,30,30,1,resources/Slide44.BMP,3COE10,test18,f,416570,001,2023-06-11_09h22.53.023,drops_juice,2023.1.2,Win32,59.81218972,5eb152b9d01b0a0464dce3c4,6482ffc4da57468e3568a8f2,64857404e41b87c693be523c
f,0,0.5054,0,31,31,31,1,resources/Slide57.BMP,5IIE01,test19,j,416570,001,2023-06-11_09h22.53.023,drops_juice,2023.1.2,Win32,59.81218972,5eb152b9d01b0a0464dce3c4,6482ffc4da57468e3568a8f2,64857404e41b87c693be523c
f,0,0.5326,0,32,32,32,1,resources/Slide25.BMP,2IR02,test20,j,416570,001,2023-06-11_09h22.53.023,drops_juice,2023.1.2,Win32,59.81218972,5eb152b9d01b0a0464dce3c4,6482ffc4da57468e3568a8f2,64857404e41b87c693be523c
f,0,0.539,0,33,33,33,1,resources/Slide87.BMP,7IEE09,test21,space,416570,001,2023-06-11_09h22.53.023,drops_juice,2023.1.2,Win32,59.81218972,5eb152b9d01b0a0464dce3c4,6482ffc4da57468e3568a8f2,64857404e41b87c693be523c
j,0,0.5306,0,34,34,34,1,resources/Slide66.BMP,5IIE10,test22,f,416570,001,2023-06-11_09h22.53.023,drops_juice,2023.1.2,Win32,59.81218972,5eb152b9d01b0a0464dce3c4,6482ffc4da57468e3568a8f2,64857404e41b87c693be523c
f,1,0.4206,0,35,35,35,1,resources/Slide47.BMP,4COU02,test23,f,416570,001,2023-06-11_09h22.53.023,drops_juice,2023.1.2,Win32,59.81218972,5eb152b9d01b0a0464dce3c4,6482ffc4da57468e3568a8f2,64857404e41b87c693be523c
j,1,0.498,0,36,36,36,1,resources/Slide43.BMP,3COE09,test24,j,416570,001,2023-06-11_09h22.53.023,drops_juice,2023.1.2,Win32,59.81218972,5eb152b9d01b0a0464dce3c4,6482ffc4da57468e3568a8f2,64857404e41b87c693be523c
f,0,0.9345,0,37,37,37,1,resources/Slide65.BMP,5IIE09,test25,j,416570,001,2023-06-11_09h22.53.023,drops_juice,2023.1.2,Win32,59.81218972,5eb152b9d01b0a0464dce3c4,6482ffc4da57468e3568a8f2,64857404e41b87c693be523c
f,1,0.9256,0,38,38,38,1,resources/Slide24.BMP,2IR01,test26,f,416570,001,2023-06-11_09h22.53.023,drops_juice,2023.1.2,Win32,59.81218972,5eb152b9d01b0a0464dce3c4,6482ffc4da57468e3568a8f2,64857404e41b87c693be523c
f,1,1.0482,0,39,39,39,1,resources/Slide22.BMP,1DR10,test27,f,416570,001,2023-06-11_09h22.53.023,drops_juice,2023.1.2,Win32,59.81218972,5eb152b9d01b0a0464dce3c4,6482ffc4da57468e3568a8f2,64857404e41b87c693be523c
f,0,0.9195,0,40,40,40,1,resources/Slide69.BMP,6IIU02,test28,j,416570,001,2023-06-11_09h22.53.023,drops_juice,2023.1.2,Win32,59.81218972,5eb152b9d01b0a0464dce3c4,6482ffc4da57468e3568a8f2,64857404e41b87c693be523c
f,0,0.6687,0,41,41,41,1,resources/Slide91.BMP,8IEU02,test29,space,416570,001,2023-06-11_09h22.53.023,drops_juice,2023.1.2,Win32,59.81218972,5eb152b9d01b0a0464dce3c4,6482ffc4da57468e3568a8f2,64857404e41b87c693be523c
j,1,0.7817,0,42,42,42,1,resources/Slide13.BMP,1DR01,test30,j,416570,001,2023-06-11_09h22.53.023,drops_juice,2023.1.2,Win32,59.81218972,5eb152b9d01b0a0464dce3c4,6482ffc4da57468e3568a8f2,64857404e41b87c693be523c
j,1,0.5125,0,43,43,43,1,resources/Slide54.BMP,4COU09,test31,j,416570,001,2023-06-11_09h22.53.023,drops_juice,2023.1.2,Win32,59.81218972,5eb152b9d01b0a0464dce3c4,6482ffc4da57468e3568a8f2,64857404e41b87c693be523c
j,0,0.7315,0,44,44,44,1,resources/Slide58.BMP,5IIE02,test32,f,416570,001,2023-06-11_09h22.53.023,drops_juice,2023.1.2,Win32,59.81218972,5eb152b9d01b0a0464dce3c4,6482ffc4da57468e3568a8f2,64857404e41b87c693be523c
j,1,0.4344,0,45,45,45,1,resources/Slide41.BMP,3COE07,test33,j,416570,001,2023-06-11_09h22.53.023,drops_juice,2023.1.2,Win32,59.81218972,5eb152b9d01b0a0464dce3c4,6482ffc4da57468e3568a8f2,64857404e41b87c693be523c
f,1,0.4843,0,46,46,46,1,resources/Slide18.BMP,1DR06,test34,f,416570,001,2023-06-11_09h22.53.023,drops_juice,2023.1.2,Win32,59.81218972,5eb152b9d01b0a0464dce3c4,6482ffc4da57468e3568a8f2,64857404e41b87c693be523c
f,0,0.4669,0,47,47,47,1,resources/Slide73.BMP,6IIU06,test35,j,416570,001,2023-06-11_09h22.53.023,drops_juice,2023.1.2,Win32,59.81218972,5eb152b9d01b0a0464dce3c4,6482ffc4da57468e3568a8f2,64857404e41b87c693be523c
f,1,1.4466,0,48,48,48,1,resources/Slide26.BMP,2IR03,test36,f,416570,001,2023-06-11_09h22.53.023,drops_juice,2023.1.2,Win32,59.81218972,5eb152b9d01b0a0464dce3c4,6482ffc4da57468e3568a8f2,64857404e41b87c693be523c
j,0,1.2458,0,49,49,49,1,resources/Slide92.BMP,8IEU03,test37,space,416570,001,2023-06-11_09h22.53.023,drops_juice,2023.1.2,Win32,59.81218972,5eb152b9d01b0a0464dce3c4,6482ffc4da57468e3568a8f2,64857404e41b87c693be523c
f,1,0.7002,0,50,50,50,1,resources/Slide40.BMP,3COE06,test38,f,416570,001,2023-06-11_09h22.53.023,drops_juice,2023.1.2,Win32,59.81218972,5eb152b9d01b0a0464dce3c4,6482ffc4da57468e3568a8f2,64857404e41b87c693be523c
f,0,0.9463,0,51,51,51,1,resources/Slide71.BMP,6IIU04,test39,j,416570,001,2023-06-11_09h22.53.023,drops_juice,2023.1.2,Win32,59.81218972,5eb152b9d01b0a0464dce3c4,6482ffc4da57468e3568a8f2,64857404e41b87c693be523c
j,0,1.0971,0,52,52,52,1,resources/Slide28.BMP,2IR05,test40,f,416570,001,2023-06-11_09h22.53.023,drops_juice,2023.1.2,Win32,59.81218972,5eb152b9d01b0a0464dce3c4,6482ffc4da57468e3568a8f2,64857404e41b87c693be523c
f,1,1.1415,0,53,53,53,1,resources/Slide38.BMP,3COE04,test41,f,416570,001,2023-06-11_09h22.53.023,drops_juice,2023.1.2,Win32,59.81218972,5eb152b9d01b0a0464dce3c4,6482ffc4da57468e3568a8f2,64857404e41b87c693be523c
j,0,2.5668,0,54,54,54,1,resources/Slide94.BMP,8IEU05,test42,space,416570,001,2023-06-11_09h22.53.023,drops_juice,2023.1.2,Win32,59.81218972,5eb152b9d01b0a0464dce3c4,6482ffc4da57468e3568a8f2,64857404e41b87c693be523c
space,0,1.7154,0,55,55,55,1,resources/Slide29.BMP,2IR06,test43,j,416570,001,2023-06-11_09h22.53.023,drops_juice,2023.1.2,Win32,59.81218972,5eb152b9d01b0a0464dce3c4,6482ffc4da57468e3568a8f2,64857404e41b87c693be523c
j,0,1.1013,0,56,56,56,1,resources/Slide60.BMP,5IIE04,test44,f,416570,001,2023-06-11_09h22.53.023,drops_juice,2023.1.2,Win32,59.81218972,5eb152b9d01b0a0464dce3c4,6482ffc4da57468e3568a8f2,64857404e41b87c693be523c
j,0,0.6969,0,57,57,57,1,resources/Slide70.BMP,6IIU03,test45,f,416570,001,2023-06-11_09h22.53.023,drops_juice,2023.1.2,Win32,59.81218972,5eb152b9d01b0a0464dce3c4,6482ffc4da57468e3568a8f2,64857404e41b87c693be523c
j,1,0.5185,0,58,58,58,1,resources/Slide17.BMP,1DR05,test46,j,416570,001,2023-06-11_09h22.53.023,drops_juice,2023.1.2,Win32,59.81218972,5eb152b9d01b0a0464dce3c4,6482ffc4da57468e3568a8f2,64857404e41b87c693be523c
f,0,1.8452,0,59,59,59,1,resources/Slide95.BMP,8IEU06,test47,space,416570,001,2023-06-11_09h22.53.023,drops_juice,2023.1.2,Win32,59.81218972,5eb152b9d01b0a0464dce3c4,6482ffc4da57468e3568a8f2,64857404e41b87c693be523c
j,1,0.667,0,60,60,60,1,resources/Slide37.BMP,3COE03,test48,j,416570,001,2023-06-11_09h22.53.023,drops_juice,2023.1.2,Win32,59.81218972,5eb152b9d01b0a0464dce3c4,6482ffc4da57468e3568a8f2,64857404e41b87c693be523c
j,0,0.4813,0,61,61,61,1,resources/Slide81.BMP,7IEE03,test49,space,416570,001,2023-06-11_09h22.53.023,drops_juice,2023.1.2,Win32,59.81218972,5eb152b9d01b0a0464dce3c4,6482ffc4da57468e3568a8f2,64857404e41b87c693be523c
j,1,0.3989,0,62,62,62,1,resources/Slide15.BMP,1DR03,test50,j,416570,001,2023-06-11_09h22.53.023,drops_juice,2023.1.2,Win32,59.81218972,5eb152b9d01b0a0464dce3c4,6482ffc4da57468e3568a8f2,64857404e41b87c693be523c
f,1,1.9481,0,63,63,63,1,resources/Slide30.BMP,2IR07,test51,f,416570,001,2023-06-11_09h22.53.023,drops_juice,2023.1.2,Win32,59.81218972,5eb152b9d01b0a0464dce3c4,6482ffc4da57468e3568a8f2,64857404e41b87c693be523c
f,0,1.1534,0,64,64,64,1,resources/Slide82.BMP,7IEE04,test52,space,416570,001,2023-06-11_09h22.53.023,drops_juice,2023.1.2,Win32,59.81218972,5eb152b9d01b0a0464dce3c4,6482ffc4da57468e3568a8f2,64857404e41b87c693be523c
f,1,0.4898,0,65,65,65,1,resources/Slide16.BMP,1DR04,test53,f,416570,001,2023-06-11_09h22.53.023,drops_juice,2023.1.2,Win32,59.81218972,5eb152b9d01b0a0464dce3c4,6482ffc4da57468e3568a8f2,64857404e41b87c693be523c
f,0,0.3529,0,66,66,66,1,resources/Slide84.BMP,7IEE06,test54,space,416570,001,2023-06-11_09h22.53.023,drops_juice,2023.1.2,Win32,59.81218972,5eb152b9d01b0a0464dce3c4,6482ffc4da57468e3568a8f2,64857404e41b87c693be523c
f,0,0.4144,0,67,67,67,1,resources/Slide93.BMP,8IEU04,test55,space,416570,001,2023-06-11_09h22.53.023,drops_juice,2023.1.2,Win32,59.81218972,5eb152b9d01b0a0464dce3c4,6482ffc4da57468e3568a8f2,64857404e41b87c693be523c
j,1,0.4176,0,68,68,68,1,resources/Slide48.BMP,4COU03,test56,j,416570,001,2023-06-11_09h22.53.023,drops_juice,2023.1.2,Win32,59.81218972,5eb152b9d01b0a0464dce3c4,6482ffc4da57468e3568a8f2,64857404e41b87c693be523c
j,0,0.3664,0,69,69,69,1,resources/Slide85.BMP,7IEE07,test57,space,416570,001,2023-06-11_09h22.53.023,drops_juice,2023.1.2,Win32,59.81218972,5eb152b9d01b0a0464dce3c4,6482ffc4da57468e3568a8f2,64857404e41b87c693be523c
j,1,0.4946,0,70,70,70,1,resources/Slide50.BMP,4COU05,test58,j,416570,001,2023-06-11_09h22.53.023,drops_juice,2023.1.2,Win32,59.81218972,5eb152b9d01b0a0464dce3c4,6482ffc4da57468e3568a8f2,64857404e41b87c693be523c
f,0,0.4188,0,71,71,71,1,resources/Slide99.BMP,8IEU10,test59,space,416570,001,2023-06-11_09h22.53.023,drops_juice,2023.1.2,Win32,59.81218972,5eb152b9d01b0a0464dce3c4,6482ffc4da57468e3568a8f2,64857404e41b87c693be523c
j,1,0.5164,0,72,72,72,1,resources/Slide39.BMP,3COE05,test60,j,416570,001,2023-06-11_09h22.53.023,drops_juice,2023.1.2,Win32,59.81218972,5eb152b9d01b0a0464dce3c4,6482ffc4da57468e3568a8f2,64857404e41b87c693be523c
j,0,0.5945,0,73,73,73,1,resources/Slide72.BMP,6IIU05,test61,f,416570,001,2023-06-11_09h22.53.023,drops_juice,2023.1.2,Win32,59.81218972,5eb152b9d01b0a0464dce3c4,6482ffc4da57468e3568a8f2,64857404e41b87c693be523c
j,0,0.618,0,74,74,74,1,resources/Slide64.BMP,5IIE08,test62,f,416570,001,2023-06-11_09h22.53.023,drops_juice,2023.1.2,Win32,59.81218972,5eb152b9d01b0a0464dce3c4,6482ffc4da57468e3568a8f2,64857404e41b87c693be523c
j,1,1.8853,0,75,75,75,1,resources/Slide31.BMP,2IR08,test63,j,416570,001,2023-06-11_09h22.53.023,drops_juice,2023.1.2,Win32,59.81218972,5eb152b9d01b0a0464dce3c4,6482ffc4da57468e3568a8f2,64857404e41b87c693be523c
j,0,0.8346,0,76,76,76,1,resources/Slide62.BMP,5IIE06,test64,f,416570,001,2023-06-11_09h22.53.023,drops_juice,2023.1.2,Win32,59.81218972,5eb152b9d01b0a0464dce3c4,6482ffc4da57468e3568a8f2,64857404e41b87c693be523c
f,1,0.5636,0,77,77,77,1,resources/Slide49.BMP,4COU04,test65,f,416570,001,2023-06-11_09h22.53.023,drops_juice,2023.1.2,Win32,59.81218972,5eb152b9d01b0a0464dce3c4,6482ffc4da57468e3568a8f2,64857404e41b87c693be523c
j,0,0.7502,0,78,78,78,1,resources/Slide83.BMP,7IEE05,test66,space,416570,001,2023-06-11_09h22.53.023,drops_juice,2023.1.2,Win32,59.81218972,5eb152b9d01b0a0464dce3c4,6482ffc4da57468e3568a8f2,64857404e41b87c693be523c
f,0,0.7313,0,79,79,79,1,resources/Slide59.BMP,5IIE03,test67,j,416570,001,2023-06-11_09h22.53.023,drops_juice,2023.1.2,Win32,59.81218972,5eb152b9d01b0a0464dce3c4,6482ffc4da57468e3568a8f2,64857404e41b87c693be523c
f,1,0.4834,0,80,80,80,1,resources/Slide51.BMP,4COU06,test68,f,416570,001,2023-06-11_09h22.53.023,drops_juice,2023.1.2,Win32,59.81218972,5eb152b9d01b0a0464dce3c4,6482ffc4da57468e3568a8f2,64857404e41b87c693be523c
f,0,0.3674,0,81,81,81,1,resources/Slide97.BMP,8IEU08,test69,space,416570,001,2023-06-11_09h22.53.023,drops_juice,2023.1.2,Win32,59.81218972,5eb152b9d01b0a0464dce3c4,6482ffc4da57468e3568a8f2,64857404e41b87c693be523c
f,1,0.3337,0,82,82,82,1,resources/Slide20.BMP,1DR08,test70,f,416570,001,2023-06-11_09h22.53.023,drops_juice,2023.1.2,Win32,59.81218972,5eb152b9d01b0a0464dce3c4,6482ffc4da57468e3568a8f2,64857404e41b87c693be523c
j,0,0.3522,0,83,83,83,1,resources/Slide98.BMP,8IEU09,test71,space,416570,001,2023-06-11_09h22.53.023,drops_juice,2023.1.2,Win32,59.81218972,5eb152b9d01b0a0464dce3c4,6482ffc4da57468e3568a8f2,64857404e41b87c693be523c
f,0,0.4109,0,84,84,84,1,resources/Slide86.BMP,7IEE08,test72,space,416570,001,2023-06-11_09h22.53.023,drops_juice,2023.1.2,Win32,59.81218972,5eb152b9d01b0a0464dce3c4,6482ffc4da57468e3568a8f2,64857404e41b87c693be523c
j,1,0.4941,0,85,85,85,1,resources/Slide52.BMP,4COU07,test73,j,416570,001,2023-06-11_09h22.53.023,drops_juice,2023.1.2,Win32,59.81218972,5eb152b9d01b0a0464dce3c4,6482ffc4da57468e3568a8f2,64857404e41b87c693be523c
f,0,0.3918,0,86,86,86,1,resources/Slide63.BMP,5IIE07,test74,j,416570,001,2023-06-11_09h22.53.023,drops_juice,2023.1.2,Win32,59.81218972,5eb152b9d01b0a0464dce3c4,6482ffc4da57468e3568a8f2,64857404e41b87c693be523c
f,1,0.5967,0,87,87,87,1,resources/Slide42.BMP,3COE08,test75,f,416570,001,2023-06-11_09h22.53.023,drops_juice,2023.1.2,Win32,59.81218972,5eb152b9d01b0a0464dce3c4,6482ffc4da57468e3568a8f2,64857404e41b87c693be523c
f,0,0.5509,0,88,88,88,1,resources/Slide75.BMP,6IIU08,test76,j,416570,001,2023-06-11_09h22.53.023,drops_juice,2023.1.2,Win32,59.81218972,5eb152b9d01b0a0464dce3c4,6482ffc4da57468e3568a8f2,64857404e41b87c693be523c
j,0,0.5166,0,89,89,89,1,resources/Slide96.BMP,8IEU07,test77,space,416570,001,2023-06-11_09h22.53.023,drops_juice,2023.1.2,Win32,59.81218972,5eb152b9d01b0a0464dce3c4,6482ffc4da57468e3568a8f2,64857404e41b87c693be523c
f,1,0.4831,0,90,90,90,1,resources/Slide53.BMP,4COU08,test78,f,416570,001,2023-06-11_09h22.53.023,drops_juice,2023.1.2,Win32,59.81218972,5eb152b9d01b0a0464dce3c4,6482ffc4da57468e3568a8f2,64857404e41b87c693be523c
j,1,2.4155,0,91,91,91,1,resources/Slide19.BMP,1DR07,test79,j,416570,001,2023-06-11_09h22.53.023,drops_juice,2023.1.2,Win32,59.81218972,5eb152b9d01b0a0464dce3c4,6482ffc4da57468e3568a8f2,64857404e41b87c693be523c
j,0,0.6678,0,92,92,92,1,resources/Slide74.BMP,6IIU07,test80,f,416570,001,2023-06-11_09h22.53.023,drops_juice,2023.1.2,Win32,59.81218972,5eb152b9d01b0a0464dce3c4,6482ffc4da57468e3568a8f2,64857404e41b87c693be523c
f,0,0.4509,0,93,93,93,1,resources/Slide61.BMP,5IIE05,test81,j,416570,001,2023-06-11_09h22.53.023,drops_juice,2023.1.2,Win32,59.81218972,5eb152b9d01b0a0464dce3c4,6482ffc4da57468e3568a8f2,64857404e41b87c693be523c
j,1,1.3517,0,94,94,94,1,resources/Slide27.BMP,2IR04,test82,j,416570,001,2023-06-11_09h22.53.023,drops_juice,2023.1.2,Win32,59.81218972,5eb152b9d01b0a0464dce3c4,6482ffc4da57468e3568a8f2,64857404e41b87c693be523c
space,0,4.1371,0,95,95,95,1,resources/Slide102.bmp,ins,end of test,,416570,001,2023-06-11_09h22.53.023,drops_juice,2023.1.2,Win32,59.81218972,5eb152b9d01b0a0464dce3c4,6482ffc4da57468e3568a8f2,64857404e41b87c693be523c
space,0,23.525,0,96,96,96,1,resources/Slide01.bmp,ins,instruction_g,,416570,001,2023-06-11_09h22.53.023,drops_juice,2023.1.2,Win32,59.81218972,5eb152b9d01b0a0464dce3c4,6482ffc4da57468e3568a8f2,64857404e41b87c693be523c
j,0,2.0163,0,97,97,97,1,resources/Slide02.bmp,ins,practice_start,,416570,001,2023-06-11_09h22.53.023,drops_juice,2023.1.2,Win32,59.81218972,5eb152b9d01b0a0464dce3c4,6482ffc4da57468e3568a8f2,64857404e41b87c693be523c
j,1,0.6979,0,98,98,98,1,resources/Slide03.BMP,1DR,pract1,j,416570,001,2023-06-11_09h22.53.023,drops_juice,2023.1.2,Win32,59.81218972,5eb152b9d01b0a0464dce3c4,6482ffc4da57468e3568a8f2,64857404e41b87c693be523c
f,1,1.6201,0,99,99,99,1,resources/Slide04.BMP,2IR,pract2,f,416570,001,2023-06-11_09h22.53.023,drops_juice,2023.1.2,Win32,59.81218972,5eb152b9d01b0a0464dce3c4,6482ffc4da57468e3568a8f2,64857404e41b87c693be523c
j,0,1.7671,0,100,100,100,1,resources/Slide05.BMP,8IEU,pract3,space,416570,001,2023-06-11_09h22.53.023,drops_juice,2023.1.2,Win32,59.81218972,5eb152b9d01b0a0464dce3c4,6482ffc4da57468e3568a8f2,64857404e41b87c693be523c
j,1,3.0855,0,101,101,101,1,resources/Slide06.BMP,3COE,pract4,j,416570,001,2023-06-11_09h22.53.023,drops_juice,2023.1.2,Win32,59.81218972,5eb152b9d01b0a0464dce3c4,6482ffc4da57468e3568a8f2,64857404e41b87c693be523c
j,1,1.1559,0,102,102,102,1,resources/Slide07.BMP,4COU,pract5,j,416570,001,2023-06-11_09h22.53.023,drops_juice,2023.1.2,Win32,59.81218972,5eb152b9d01b0a0464dce3c4,6482ffc4da57468e3568a8f2,64857404e41b87c693be523c
j,0,0.7407,0,103,103,103,1,resources/Slide08.BMP,5IIE,pract6,f,416570,001,2023-06-11_09h22.53.023,drops_juice,2023.1.2,Win32,59.81218972,5eb152b9d01b0a0464dce3c4,6482ffc4da57468e3568a8f2,64857404e41b87c693be523c
j,0,0.7178,0,104,104,104,1,resources/Slide09.BMP,6IIU,pract7,f,416570,001,2023-06-11_09h22.53.023,drops_juice,2023.1.2,Win32,59.81218972,5eb152b9d01b0a0464dce3c4,6482ffc4da57468e3568a8f2,64857404e41b87c693be523c
space,1,3.3501,0,105,105,105,1,resources/Slide010.BMP,7IEE,pract8,space,416570,001,2023-06-11_09h22.53.023,drops_juice,2023.1.2,Win32,59.81218972,5eb152b9d01b0a0464dce3c4,6482ffc4da57468e3568a8f2,64857404e41b87c693be523c
space,0,0.8519,0,106,106,106,1,resources/Slide011.bmp,ins,test_start,,416570,001,2023-06-11_09h22.53.023,drops_juice,2023.1.2,Win32,59.81218972,5eb152b9d01b0a0464dce3c4,6482ffc4da57468e3568a8f2,64857404e41b87c693be523c
j,1,1.2667,0,107,107,107,1,resources/Slide03.BMP,1DR,dummy1,j,416570,001,2023-06-11_09h22.53.023,drops_juice,2023.1.2,Win32,59.81218972,5eb152b9d01b0a0464dce3c4,6482ffc4da57468e3568a8f2,64857404e41b87c693be523c
j,0,2.8175,0,108,108,108,1,resources/Slide010.BMP,7IEE,dummy2,space,416570,001,2023-06-11_09h22.53.023,drops_juice,2023.1.2,Win32,59.81218972,5eb152b9d01b0a0464dce3c4,6482ffc4da57468e3568a8f2,64857404e41b87c693be523c
space,0,4.0363,0,109,109,109,1,resources/Slide036.BMP,3COE02,test01,f,416570,001,2023-06-11_09h22.53.023,drops_juice,2023.1.2,Win32,59.81218972,5eb152b9d01b0a0464dce3c4,6482ffc4da57468e3568a8f2,64857404e41b87c693be523c
space,1,2.3797,0,110,110,110,1,resources/Slide080.BMP,7IEE02,test02,space,416570,001,2023-06-11_09h22.53.023,drops_juice,2023.1.2,Win32,59.81218972,5eb152b9d01b0a0464dce3c4,6482ffc4da57468e3568a8f2,64857404e41b87c693be523c
f,1,1.2525,0,111,111,111,1,resources/Slide055.BMP,4COU10,test03,f,416570,001,2023-06-11_09h22.53.023,drops_juice,2023.1.2,Win32,59.81218972,5eb152b9d01b0a0464dce3c4,6482ffc4da57468e3568a8f2,64857404e41b87c693be523c
j,1,1.9967,0,112,112,112,1,resources/Slide077.BMP,6IIU10,test04,j,416570,001,2023-06-11_09h22.53.023,drops_juice,2023.1.2,Win32,59.81218972,5eb152b9d01b0a0464dce3c4,6482ffc4da57468e3568a8f2,64857404e41b87c693be523c
j,1,1.2013,0,113,113,113,1,resources/Slide033.BMP,2IR10,test05,j,416570,001,2023-06-11_09h22.53.023,drops_juice,2023.1.2,Win32,59.81218972,5eb152b9d01b0a0464dce3c4,6482ffc4da57468e3568a8f2,64857404e41b87c693be523c
f,0,2.2024,0,114,114,114,1,resources/Slide090.BMP,8IEU01,test06,space,416570,001,2023-06-11_09h22.53.023,drops_juice,2023.1.2,Win32,59.81218972,5eb152b9d01b0a0464dce3c4,6482ffc4da57468e3568a8f2,64857404e41b87c693be523c
f,1,3.1369,0,115,115,115,1,resources/Slide014.BMP,1DR02,test07,f,416570,001,2023-06-11_09h22.53.023,drops_juice,2023.1.2,Win32,59.81218972,5eb152b9d01b0a0464dce3c4,6482ffc4da57468e3568a8f2,64857404e41b87c693be523c
space,1,1.5352,0,116,116,116,1,resources/Slide088.BMP,7IEE10,test08,space,416570,001,2023-06-11_09h22.53.023,drops_juice,2023.1.2,Win32,59.81218972,5eb152b9d01b0a0464dce3c4,6482ffc4da57468e3568a8f2,64857404e41b87c693be523c
f,1,1.8681,0,117,117,117,1,resources/Slide032.BMP,2IR09,test09,f,416570,001,2023-06-11_09h22.53.023,drops_juice,2023.1.2,Win32,59.81218972,5eb152b9d01b0a0464dce3c4,6482ffc4da57468e3568a8f2,64857404e41b87c693be523c
f,1,2.1087,0,118,118,118,1,resources/Slide068.BMP,6IIU01,test10,f,416570,001,2023-06-11_09h22.53.023,drops_juice,2023.1.2,Win32,59.81218972,5eb152b9d01b0a0464dce3c4,6482ffc4da57468e3568a8f2,64857404e41b87c693be523c
space,0,3.2497,0,119,119,119,1,resources/Slide035.BMP,3COE01,test11,j,416570,001,2023-06-11_09h22.53.023,drops_juice,2023.1.2,Win32,59.81218972,5eb152b9d01b0a0464dce3c4,6482ffc4da57468e3568a8f2,64857404e41b87c693be523c
j,0,5.0361,0,120,120,120,1,resources/Slide0100.BMP,8IEU11,test12,space,416570,001,2023-06-11_09h22.53.023,drops_juice,2023.1.2,Win32,59.81218972,5eb152b9d01b0a0464dce3c4,6482ffc4da57468e3568a8f2,64857404e41b87c693be523c
j,1,0.7497,0,121,121,121,1,resources/Slide046.BMP,4COU01,test13,j,416570,001,2023-06-11_09h22.53.023,drops_juice,2023.1.2,Win32,59.81218972,5eb152b9d01b0a0464dce3c4,6482ffc4da57468e3568a8f2,64857404e41b87c693be523c
f,0,0.847,0,122,122,122,1,resources/Slide0101.BMP,8IEU12,test14,space,416570,001,2023-06-11_09h22.53.023,drops_juice,2023.1.2,Win32,59.81218972,5eb152b9d01b0a0464dce3c4,6482ffc4da57468e3568a8f2,64857404e41b87c693be523c
space,1,1.0346,0,123,123,123,1,resources/Slide079.BMP,7IEE01,test15,space,416570,001,2023-06-11_09h22.53.023,drops_juice,2023.1.2,Win32,59.81218972,5eb152b9d01b0a0464dce3c4,6482ffc4da57468e3568a8f2,64857404e41b87c693be523c
j,1,0.601,0,124,124,124,1,resources/Slide021.BMP,1DR09,test16,j,416570,001,2023-06-11_09h22.53.023,drops_juice,2023.1.2,Win32,59.81218972,5eb152b9d01b0a0464dce3c4,6482ffc4da57468e3568a8f2,64857404e41b87c693be523c
f,1,1.5526,0,125,125,125,1,resources/Slide076.BMP,6IIU09,test17,f,416570,001,2023-06-11_09h22.53.023,drops_juice,2023.1.2,Win32,59.81218972,5eb152b9d01b0a0464dce3c4,6482ffc4da57468e3568a8f2,64857404e41b87c693be523c
f,1,3.2507,0,126,126,126,1,resources/Slide044.BMP,3COE10,test18,f,416570,001,2023-06-11_09h22.53.023,drops_juice,2023.1.2,Win32,59.81218972,5eb152b9d01b0a0464dce3c4,6482ffc4da57468e3568a8f2,64857404e41b87c693be523c
f,0,0.7801,0,127,127,127,1,resources/Slide057.BMP,5IIE01,test19,j,416570,001,2023-06-11_09h22.53.023,drops_juice,2023.1.2,Win32,59.81218972,5eb152b9d01b0a0464dce3c4,6482ffc4da57468e3568a8f2,64857404e41b87c693be523c
j,1,1.6456,0,128,128,128,1,resources/Slide025.BMP,2IR02,test20,j,416570,001,2023-06-11_09h22.53.023,drops_juice,2023.1.2,Win32,59.81218972,5eb152b9d01b0a0464dce3c4,6482ffc4da57468e3568a8f2,64857404e41b87c693be523c
space,1,1.5931,0,129,129,129,1,resources/Slide087.BMP,7IEE09,test21,space,416570,001,2023-06-11_09h22.53.023,drops_juice,2023.1.2,Win32,59.81218972,5eb152b9d01b0a0464dce3c4,6482ffc4da57468e3568a8f2,64857404e41b87c693be523c
j,0,0.9131,0,130,130,130,1,resources/Slide066.BMP,5IIE10,test22,f,416570,001,2023-06-11_09h22.53.023,drops_juice,2023.1.2,Win32,59.81218972,5eb152b9d01b0a0464dce3c4,6482ffc4da57468e3568a8f2,64857404e41b87c693be523c
f,1,1.1869,0,131,131,131,1,resources/Slide047.BMP,4COU02,test23,f,416570,001,2023-06-11_09h22.53.023,drops_juice,2023.1.2,Win32,59.81218972,5eb152b9d01b0a0464dce3c4,6482ffc4da57468e3568a8f2,64857404e41b87c693be523c
j,1,1.6177,0,132,132,132,1,resources/Slide043.BMP,3COE09,test24,j,416570,001,2023-06-11_09h22.53.023,drops_juice,2023.1.2,Win32,59.81218972,5eb152b9d01b0a0464dce3c4,6482ffc4da57468e3568a8f2,64857404e41b87c693be523c
j,1,0.8317,0,133,133,133,1,resources/Slide065.BMP,5IIE09,test25,j,416570,001,2023-06-11_09h22.53.023,drops_juice,2023.1.2,Win32,59.81218972,5eb152b9d01b0a0464dce3c4,6482ffc4da57468e3568a8f2,64857404e41b87c693be523c
f,1,2.0154,0,134,134,134,1,resources/Slide024.BMP,2IR01,test26,f,416570,001,2023-06-11_09h22.53.023,drops_juice,2023.1.2,Win32,59.81218972,5eb152b9d01b0a0464dce3c4,6482ffc4da57468e3568a8f2,64857404e41b87c693be523c
f,1,0.9811,0,135,135,135,1,resources/Slide022.BMP,1DR10,test27,f,416570,001,2023-06-11_09h22.53.023,drops_juice,2023.1.2,Win32,59.81218972,5eb152b9d01b0a0464dce3c4,6482ffc4da57468e3568a8f2,64857404e41b87c693be523c
j,1,1.199,0,136,136,136,1,resources/Slide069.BMP,6IIU02,test28,j,416570,001,2023-06-11_09h22.53.023,drops_juice,2023.1.2,Win32,59.81218972,5eb152b9d01b0a0464dce3c4,6482ffc4da57468e3568a8f2,64857404e41b87c693be523c
j,0,1.2223,0,137,137,137,1,resources/Slide091.BMP,8IEU02,test29,space,416570,001,2023-06-11_09h22.53.023,drops_juice,2023.1.2,Win32,59.81218972,5eb152b9d01b0a0464dce3c4,6482ffc4da57468e3568a8f2,64857404e41b87c693be523c
j,1,3.2327,0,138,138,138,1,resources/Slide013.BMP,1DR01,test30,j,416570,001,2023-06-11_09h22.53.023,drops_juice,2023.1.2,Win32,59.81218972,5eb152b9d01b0a0464dce3c4,6482ffc4da57468e3568a8f2,64857404e41b87c693be523c
j,1,0.7007,0,139,139,139,1,resources/Slide054.BMP,4COU09,test31,j,416570,001,2023-06-11_09h22.53.023,drops_juice,2023.1.2,Win32,59.81218972,5eb152b9d01b0a0464dce3c4,6482ffc4da57468e3568a8f2,64857404e41b87c693be523c
f,1,4.6352,0,140,140,140,1,resources/Slide058.BMP,5IIE02,test32,f,416570,001,2023-06-11_09h22.53.023,drops_juice,2023.1.2,Win32,59.81218972,5eb152b9d01b0a0464dce3c4,6482ffc4da57468e3568a8f2,64857404e41b87c693be523c
j,1,5.784,0,141,141,141,1,resources/Slide041.BMP,3COE07,test33,j,416570,001,2023-06-11_09h22.53.023,drops_juice,2023.1.2,Win32,59.81218972,5eb152b9d01b0a0464dce3c4,6482ffc4da57468e3568a8f2,64857404e41b87c693be523c
f,1,0.9181,0,142,142,142,1,resources/Slide018.BMP,1DR06,test34,f,416570,001,2023-06-11_09h22.53.023,drops_juice,2023.1.2,Win32,59.81218972,5eb152b9d01b0a0464dce3c4,6482ffc4da57468e3568a8f2,64857404e41b87c693be523c
j,1,1.77,0,143,143,143,1,resources/Slide073.BMP,6IIU06,test35,j,416570,001,2023-06-11_09h22.53.023,drops_juice,2023.1.2,Win32,59.81218972,5eb152b9d01b0a0464dce3c4,6482ffc4da57468e3568a8f2,64857404e41b87c693be523c
f,1,3.3538,0,144,144,144,1,resources/Slide026.BMP,2IR03,test36,f,416570,001,2023-06-11_09h22.53.023,drops_juice,2023.1.2,Win32,59.81218972,5eb152b9d01b0a0464dce3c4,6482ffc4da57468e3568a8f2,64857404e41b87c693be523c
j,0,0.7597,0,145,145,145,1,resources/Slide092.BMP,8IEU03,test37,space,416570,001,2023-06-11_09h22.53.023,drops_juice,2023.1.2,Win32,59.81218972,5eb152b9d01b0a0464dce3c4,6482ffc4da57468e3568a8f2,64857404e41b87c693be523c
f,1,4.3847,0,146,146,146,1,resources/Slide040.BMP,3COE06,test38,f,416570,001,2023-06-11_09h22.53.023,drops_juice,2023.1.2,Win32,59.81218972,5eb152b9d01b0a0464dce3c4,6482ffc4da57468e3568a8f2,64857404e41b87c693be523c
j,1,1.2458,0,147,147,147,1,resources/Slide071.BMP,6IIU04,test39,j,416570,001,2023-06-11_09h22.53.023,drops_juice,2023.1.2,Win32,59.81218972,5eb152b9d01b0a0464dce3c4,6482ffc4da57468e3568a8f2,64857404e41b87c693be523c
f,1,1.1582,0,148,148,148,1,resources/Slide028.BMP,2IR05,test40,f,416570,001,2023-06-11_09h22.53.023,drops_juice,2023.1.2,Win32,59.81218972,5eb152b9d01b0a0464dce3c4,6482ffc4da57468e3568a8f2,64857404e41b87c693be523c
j,0,1.8519,0,149,149,149,1,resources/Slide038.BMP,3COE04,test41,f,416570,001,2023-06-11_09h22.53.023,drops_juice,2023.1.2,Win32,59.81218972,5eb152b9d01b0a0464dce3c4,6482ffc4da57468e3568a8f2,64857404e41b87c693be523c
j,0,2.8863,0,150,150,150,1,resources/Slide094.BMP,8IEU05,test42,space,416570,001,2023-06-11_09h22.53.023,drops_juice,2023.1.2,Win32,59.81218972,5eb152b9d01b0a0464dce3c4,6482ffc4da57468e3568a8f2,64857404e41b87c693be523c
j,1,1.0178,0,151,151,151,1,resources/Slide029.BMP,2IR06,test43,j,416570,001,2023-06-11_09h22.53.023,drops_juice,2023.1.2,Win32,59.81218972,5eb152b9d01b0a0464dce3c4,6482ffc4da57468e3568a8f2,64857404e41b87c693be523c
j,0,1.7191,0,152,152,152,1,resources/Slide060.BMP,5IIE04,test44,f,416570,001,2023-06-11_09h22.53.023,drops_juice,2023.1.2,Win32,59.81218972,5eb152b9d01b0a0464dce3c4,6482ffc4da57468e3568a8f2,64857404e41b87c693be523c
f,1,7.5412,0,153,153,153,1,resources/Slide070.BMP,6IIU03,test45,f,416570,001,2023-06-11_09h22.53.023,drops_juice,2023.1.2,Win32,59.81218972,5eb152b9d01b0a0464dce3c4,6482ffc4da57468e3568a8f2,64857404e41b87c693be523c
j,1,1.1147,0,154,154,154,1,resources/Slide017.BMP,1DR05,test46,j,416570,001,2023-06-11_09h22.53.023,drops_juice,2023.1.2,Win32,59.81218972,5eb152b9d01b0a0464dce3c4,6482ffc4da57468e3568a8f2,64857404e41b87c693be523c
j,0,1.8003,0,155,155,155,1,resources/Slide095.BMP,8IEU06,test47,space,416570,001,2023-06-11_09h22.53.023,drops_juice,2023.1.2,Win32,59.81218972,5eb152b9d01b0a0464dce3c4,6482ffc4da57468e3568a8f2,64857404e41b87c693be523c
j,1,2.2073,0,156,156,156,1,resources/Slide037.BMP,3COE03,test48,j,416570,001,2023-06-11_09h22.53.023,drops_juice,2023.1.2,Win32,59.81218972,5eb152b9d01b0a0464dce3c4,6482ffc4da57468e3568a8f2,64857404e41b87c693be523c
space,1,4.2498,0,157,157,157,1,resources/Slide081.BMP,7IEE03,test49,space,416570,001,2023-06-11_09h22.53.023,drops_juice,2023.1.2,Win32,59.81218972,5eb152b9d01b0a0464dce3c4,6482ffc4da57468e3568a8f2,64857404e41b87c693be523c
j,1,0.8499,0,158,158,158,1,resources/Slide015.BMP,1DR03,test50,j,416570,001,2023-06-11_09h22.53.023,drops_juice,2023.1.2,Win32,59.81218972,5eb152b9d01b0a0464dce3c4,6482ffc4da57468e3568a8f2,64857404e41b87c693be523c
f,1,0.8619,0,159,159,159,1,resources/Slide030.BMP,2IR07,test51,f,416570,001,2023-06-11_09h22.53.023,drops_juice,2023.1.2,Win32,59.81218972,5eb152b9d01b0a0464dce3c4,6482ffc4da57468e3568a8f2,64857404e41b87c693be523c
f,0,0.8494,0,160,160,160,1,resources/Slide082.BMP,7IEE04,test52,space,416570,001,2023-06-11_09h22.53.023,drops_juice,2023.1.2,Win32,59.81218972,5eb152b9d01b0a0464dce3c4,6482ffc4da57468e3568a8f2,64857404e41b87c693be523c
f,1,0.6213,0,161,161,161,1,resources/Slide016.BMP,1DR04,test53,f,416570,001,2023-06-11_09h22.53.023,drops_juice,2023.1.2,Win32,59.81218972,5eb152b9d01b0a0464dce3c4,6482ffc4da57468e3568a8f2,64857404e41b87c693be523c
space,1,1.4726,0,162,162,162,1,resources/Slide084.BMP,7IEE06,test54,space,416570,001,2023-06-11_09h22.53.023,drops_juice,2023.1.2,Win32,59.81218972,5eb152b9d01b0a0464dce3c4,6482ffc4da57468e3568a8f2,64857404e41b87c693be523c
f,0,1.3641,0,163,163,163,1,resources/Slide093.BMP,8IEU04,test55,space,416570,001,2023-06-11_09h22.53.023,drops_juice,2023.1.2,Win32,59.81218972,5eb152b9d01b0a0464dce3c4,6482ffc4da57468e3568a8f2,64857404e41b87c693be523c
j,1,0.7979,0,164,164,164,1,resources/Slide048.BMP,4COU03,test56,j,416570,001,2023-06-11_09h22.53.023,drops_juice,2023.1.2,Win32,59.81218972,5eb152b9d01b0a0464dce3c4,6482ffc4da57468e3568a8f2,64857404e41b87c693be523c
space,1,1.8805,0,165,165,165,1,resources/Slide085.BMP,7IEE07,test57,space,416570,001,2023-06-11_09h22.53.023,drops_juice,2023.1.2,Win32,59.81218972,5eb152b9d01b0a0464dce3c4,6482ffc4da57468e3568a8f2,64857404e41b87c693be523c
j,1,1.5499,0,166,166,166,1,resources/Slide050.BMP,4COU05,test58,j,416570,001,2023-06-11_09h22.53.023,drops_juice,2023.1.2,Win32,59.81218972,5eb152b9d01b0a0464dce3c4,6482ffc4da57468e3568a8f2,64857404e41b87c693be523c
f,0,1.4854,0,167,167,167,1,resources/Slide099.BMP,8IEU10,test59,space,416570,001,2023-06-11_09h22.53.023,drops_juice,2023.1.2,Win32,59.81218972,5eb152b9d01b0a0464dce3c4,6482ffc4da57468e3568a8f2,64857404e41b87c693be523c
space,0,1.6194,0,168,168,168,1,resources/Slide039.BMP,3COE05,test60,j,416570,001,2023-06-11_09h22.53.023,drops_juice,2023.1.2,Win32,59.81218972,5eb152b9d01b0a0464dce3c4,6482ffc4da57468e3568a8f2,64857404e41b87c693be523c
f,1,2.113,0,169,169,169,1,resources/Slide072.BMP,6IIU05,test61,f,416570,001,2023-06-11_09h22.53.023,drops_juice,2023.1.2,Win32,59.81218972,5eb152b9d01b0a0464dce3c4,6482ffc4da57468e3568a8f2,64857404e41b87c693be523c
j,0,0.9514,0,170,170,170,1,resources/Slide064.BMP,5IIE08,test62,f,416570,001,2023-06-11_09h22.53.023,drops_juice,2023.1.2,Win32,59.81218972,5eb152b9d01b0a0464dce3c4,6482ffc4da57468e3568a8f2,64857404e41b87c693be523c
j,1,2.9838,0,171,171,171,1,resources/Slide031.BMP,2IR08,test63,j,416570,001,2023-06-11_09h22.53.023,drops_juice,2023.1.2,Win32,59.81218972,5eb152b9d01b0a0464dce3c4,6482ffc4da57468e3568a8f2,64857404e41b87c693be523c
j,0,0.7819,0,172,172,172,1,resources/Slide062.BMP,5IIE06,test64,f,416570,001,2023-06-11_09h22.53.023,drops_juice,2023.1.2,Win32,59.81218972,5eb152b9d01b0a0464dce3c4,6482ffc4da57468e3568a8f2,64857404e41b87c693be523c
j,0,1.1783,0,173,173,173,1,resources/Slide049.BMP,4COU04,test65,f,416570,001,2023-06-11_09h22.53.023,drops_juice,2023.1.2,Win32,59.81218972,5eb152b9d01b0a0464dce3c4,6482ffc4da57468e3568a8f2,64857404e41b87c693be523c
space,1,1.62,0,174,174,174,1,resources/Slide083.BMP,7IEE05,test66,space,416570,001,2023-06-11_09h22.53.023,drops_juice,2023.1.2,Win32,59.81218972,5eb152b9d01b0a0464dce3c4,6482ffc4da57468e3568a8f2,64857404e41b87c693be523c
f,0,1.3573,0,175,175,175,1,resources/Slide059.BMP,5IIE03,test67,j,416570,001,2023-06-11_09h22.53.023,drops_juice,2023.1.2,Win32,59.81218972,5eb152b9d01b0a0464dce3c4,6482ffc4da57468e3568a8f2,64857404e41b87c693be523c
space,0,0.2287,0,176,176,176,1,resources/Slide051.BMP,4COU06,test68,f,416570,001,2023-06-11_09h22.53.023,drops_juice,2023.1.2,Win32,59.81218972,5eb152b9d01b0a0464dce3c4,6482ffc4da57468e3568a8f2,64857404e41b87c693be523c
f,0,0.8153,0,177,177,177,1,resources/Slide097.BMP,8IEU08,test69,space,416570,001,2023-06-11_09h22.53.023,drops_juice,2023.1.2,Win32,59.81218972,5eb152b9d01b0a0464dce3c4,6482ffc4da57468e3568a8f2,64857404e41b87c693be523c
f,1,0.8143,0,178,178,178,1,resources/Slide020.BMP,1DR08,test70,f,416570,001,2023-06-11_09h22.53.023,drops_juice,2023.1.2,Win32,59.81218972,5eb152b9d01b0a0464dce3c4,6482ffc4da57468e3568a8f2,64857404e41b87c693be523c
space,1,1.514,0,179,179,179,1,resources/Slide098.BMP,8IEU09,test71,space,416570,001,2023-06-11_09h22.53.023,drops_juice,2023.1.2,Win32,59.81218972,5eb152b9d01b0a0464dce3c4,6482ffc4da57468e3568a8f2,64857404e41b87c693be523c
space,1,1.331,0,180,180,180,1,resources/Slide086.BMP,7IEE08,test72,space,416570,001,2023-06-11_09h22.53.023,drops_juice,2023.1.2,Win32,59.81218972,5eb152b9d01b0a0464dce3c4,6482ffc4da57468e3568a8f2,64857404e41b87c693be523c
j,1,0.8026,0,181,181,181,1,resources/Slide052.BMP,4COU07,test73,j,416570,001,2023-06-11_09h22.53.023,drops_juice,2023.1.2,Win32,59.81218972,5eb152b9d01b0a0464dce3c4,6482ffc4da57468e3568a8f2,64857404e41b87c693be523c
j,1,1.7188,0,182,182,182,1,resources/Slide063.BMP,5IIE07,test74,j,416570,001,2023-06-11_09h22.53.023,drops_juice,2023.1.2,Win32,59.81218972,5eb152b9d01b0a0464dce3c4,6482ffc4da57468e3568a8f2,64857404e41b87c693be523c
j,0,1.8527,0,183,183,183,1,resources/Slide042.BMP,3COE08,test75,f,416570,001,2023-06-11_09h22.53.023,drops_juice,2023.1.2,Win32,59.81218972,5eb152b9d01b0a0464dce3c4,6482ffc4da57468e3568a8f2,64857404e41b87c693be523c
f,0,1.1995,0,184,184,184,1,resources/Slide075.BMP,6IIU08,test76,j,416570,001,2023-06-11_09h22.53.023,drops_juice,2023.1.2,Win32,59.81218972,5eb152b9d01b0a0464dce3c4,6482ffc4da57468e3568a8f2,64857404e41b87c693be523c
j,0,0.9176,0,185,185,185,1,resources/Slide096.BMP,8IEU07,test77,space,416570,001,2023-06-11_09h22.53.023,drops_juice,2023.1.2,Win32,59.81218972,5eb152b9d01b0a0464dce3c4,6482ffc4da57468e3568a8f2,64857404e41b87c693be523c
f,1,0.7922,0,186,186,186,1,resources/Slide053.BMP,4COU08,test78,f,416570,001,2023-06-11_09h22.53.023,drops_juice,2023.1.2,Win32,59.81218972,5eb152b9d01b0a0464dce3c4,6482ffc4da57468e3568a8f2,64857404e41b87c693be523c
j,1,1.4989,0,187,187,187,1,resources/Slide019.BMP,1DR07,test79,j,416570,001,2023-06-11_09h22.53.023,drops_juice,2023.1.2,Win32,59.81218972,5eb152b9d01b0a0464dce3c4,6482ffc4da57468e3568a8f2,64857404e41b87c693be523c
space,0,2.5629,0,188,188,188,1,resources/Slide074.BMP,6IIU07,test80,f,416570,001,2023-06-11_09h22.53.023,drops_juice,2023.1.2,Win32,59.81218972,5eb152b9d01b0a0464dce3c4,6482ffc4da57468e3568a8f2,64857404e41b87c693be523c
f,0,0.9797,0,189,189,189,1,resources/Slide061.BMP,5IIE05,test81,j,416570,001,2023-06-11_09h22.53.023,drops_juice,2023.1.2,Win32,59.81218972,5eb152b9d01b0a0464dce3c4,6482ffc4da57468e3568a8f2,64857404e41b87c693be523c
j,1,1.2024,0,190,190,190,1,resources/Slide027.BMP,2IR04,test82,j,416570,001,2023-06-11_09h22.53.023,drops_juice,2023.1.2,Win32,59.81218972,5eb152b9d01b0a0464dce3c4,6482ffc4da57468e3568a8f2,64857404e41b87c693be523c
space,0,0.9492,0,191,191,191,1,resources/Slide0102.bmp,ins,end of test,,416570,001,2023-06-11_09h22.53.023,drops_juice,2023.1.2,Win32,59.81218972,5eb152b9d01b0a0464dce3c4,6482ffc4da57468e3568a8f2,64857404e41b87c693be523c
