response.keys,response.corr,response.rt,trials.thisRepN,trials.thisTrialN,trials.thisN,trials.thisIndex,trials.ran,TrialName,Cond,Event,CorrAns,participant,session,date,expName,psychopyVersion,OS,frameRate,PROLIFIC_PID,STUDY_ID,SESSION_ID
space,0,83.0316,0,0,0,0,1,resources/Slide1.bmp,ins,instruction_g,,475119,001,2023-08-22_11h40.28.354,drops_juice,2023.1.2,Win32,60.0060006,615adbcc02818092a39ec310,6482ffc4da57468e3568a8f3,64e4818a67a4a5f23bbc3bf1
space,0,10.7517,0,1,1,1,1,resources/Slide2.bmp,ins,practice_start,,475119,001,2023-08-22_11h40.28.354,drops_juice,2023.1.2,Win32,60.0060006,615adbcc02818092a39ec310,6482ffc4da57468e3568a8f3,64e4818a67a4a5f23bbc3bf1
space,0,7.0164,0,2,2,2,1,resources/Slide3.BMP,1DR,pract1,j,475119,001,2023-08-22_11h40.28.354,drops_juice,2023.1.2,Win32,60.0060006,615adbcc02818092a39ec310,6482ffc4da57468e3568a8f3,64e4818a67a4a5f23bbc3bf1
space,0,9.142,0,3,3,3,1,resources/Slide4.BMP,2IR,pract2,f,475119,001,2023-08-22_11h40.28.354,drops_juice,2023.1.2,Win32,60.0060006,615adbcc02818092a39ec310,6482ffc4da57468e3568a8f3,64e4818a67a4a5f23bbc3bf1
space,1,20.4384,0,4,4,4,1,resources/Slide5.BMP,8IEU,pract3,space,475119,001,2023-08-22_11h40.28.354,drops_juice,2023.1.2,Win32,60.0060006,615adbcc02818092a39ec310,6482ffc4da57468e3568a8f3,64e4818a67a4a5f23bbc3bf1
space,0,64.2181,0,5,5,5,1,resources/Slide6.BMP,3COE,pract4,j,475119,001,2023-08-22_11h40.28.354,drops_juice,2023.1.2,Win32,60.0060006,615adbcc02818092a39ec310,6482ffc4da57468e3568a8f3,64e4818a67a4a5f23bbc3bf1
j,1,15.1198,0,6,6,6,1,resources/Slide7.BMP,4COU,pract5,j,475119,001,2023-08-22_11h40.28.354,drops_juice,2023.1.2,Win32,60.0060006,615adbcc02818092a39ec310,6482ffc4da57468e3568a8f3,64e4818a67a4a5f23bbc3bf1
j,0,3.354,0,7,7,7,1,resources/Slide8.BMP,5IIE,pract6,f,475119,001,2023-08-22_11h40.28.354,drops_juice,2023.1.2,Win32,60.0060006,615adbcc02818092a39ec310,6482ffc4da57468e3568a8f3,64e4818a67a4a5f23bbc3bf1
j,0,11.129,0,8,8,8,1,resources/Slide9.BMP,6IIU,pract7,f,475119,001,2023-08-22_11h40.28.354,drops_juice,2023.1.2,Win32,60.0060006,615adbcc02818092a39ec310,6482ffc4da57468e3568a8f3,64e4818a67a4a5f23bbc3bf1
space,1,9.8892,0,9,9,9,1,resources/Slide10.BMP,7IEE,pract8,space,475119,001,2023-08-22_11h40.28.354,drops_juice,2023.1.2,Win32,60.0060006,615adbcc02818092a39ec310,6482ffc4da57468e3568a8f3,64e4818a67a4a5f23bbc3bf1
space,0,7.9403,0,10,10,10,1,resources/Slide11.bmp,ins,test_start,,475119,001,2023-08-22_11h40.28.354,drops_juice,2023.1.2,Win32,60.0060006,615adbcc02818092a39ec310,6482ffc4da57468e3568a8f3,64e4818a67a4a5f23bbc3bf1
j,1,21.9928,0,11,11,11,1,resources/Slide3.BMP,1DR,dummy1,j,475119,001,2023-08-22_11h40.28.354,drops_juice,2023.1.2,Win32,60.0060006,615adbcc02818092a39ec310,6482ffc4da57468e3568a8f3,64e4818a67a4a5f23bbc3bf1
space,1,16.9004,0,12,12,12,1,resources/Slide10.BMP,7IEE,dummy2,space,475119,001,2023-08-22_11h40.28.354,drops_juice,2023.1.2,Win32,60.0060006,615adbcc02818092a39ec310,6482ffc4da57468e3568a8f3,64e4818a67a4a5f23bbc3bf1
j,0,5.6538,0,13,13,13,1,resources/Slide36.BMP,3COE02,test01,f,475119,001,2023-08-22_11h40.28.354,drops_juice,2023.1.2,Win32,60.0060006,615adbcc02818092a39ec310,6482ffc4da57468e3568a8f3,64e4818a67a4a5f23bbc3bf1
j,0,41.2973,0,14,14,14,1,resources/Slide80.BMP,7IEE02,test02,space,475119,001,2023-08-22_11h40.28.354,drops_juice,2023.1.2,Win32,60.0060006,615adbcc02818092a39ec310,6482ffc4da57468e3568a8f3,64e4818a67a4a5f23bbc3bf1
space,0,3.1835,0,15,15,15,1,resources/Slide55.BMP,4COU10,test03,f,475119,001,2023-08-22_11h40.28.354,drops_juice,2023.1.2,Win32,60.0060006,615adbcc02818092a39ec310,6482ffc4da57468e3568a8f3,64e4818a67a4a5f23bbc3bf1
space,0,2.501,0,16,16,16,1,resources/Slide77.BMP,6IIU10,test04,j,475119,001,2023-08-22_11h40.28.354,drops_juice,2023.1.2,Win32,60.0060006,615adbcc02818092a39ec310,6482ffc4da57468e3568a8f3,64e4818a67a4a5f23bbc3bf1
j,1,1.8512,0,17,17,17,1,resources/Slide33.BMP,2IR10,test05,j,475119,001,2023-08-22_11h40.28.354,drops_juice,2023.1.2,Win32,60.0060006,615adbcc02818092a39ec310,6482ffc4da57468e3568a8f3,64e4818a67a4a5f23bbc3bf1
j,0,10.7403,0,18,18,18,1,resources/Slide90.BMP,8IEU01,test06,space,475119,001,2023-08-22_11h40.28.354,drops_juice,2023.1.2,Win32,60.0060006,615adbcc02818092a39ec310,6482ffc4da57468e3568a8f3,64e4818a67a4a5f23bbc3bf1
j,0,1.8043,0,19,19,19,1,resources/Slide14.BMP,1DR02,test07,f,475119,001,2023-08-22_11h40.28.354,drops_juice,2023.1.2,Win32,60.0060006,615adbcc02818092a39ec310,6482ffc4da57468e3568a8f3,64e4818a67a4a5f23bbc3bf1
j,0,1.5426,0,20,20,20,1,resources/Slide88.BMP,7IEE10,test08,space,475119,001,2023-08-22_11h40.28.354,drops_juice,2023.1.2,Win32,60.0060006,615adbcc02818092a39ec310,6482ffc4da57468e3568a8f3,64e4818a67a4a5f23bbc3bf1
space,0,6.8488,0,21,21,21,1,resources/Slide32.BMP,2IR09,test09,f,475119,001,2023-08-22_11h40.28.354,drops_juice,2023.1.2,Win32,60.0060006,615adbcc02818092a39ec310,6482ffc4da57468e3568a8f3,64e4818a67a4a5f23bbc3bf1
space,0,6.8193,0,22,22,22,1,resources/Slide68.BMP,6IIU01,test10,f,475119,001,2023-08-22_11h40.28.354,drops_juice,2023.1.2,Win32,60.0060006,615adbcc02818092a39ec310,6482ffc4da57468e3568a8f3,64e4818a67a4a5f23bbc3bf1
j,1,2.1026,0,23,23,23,1,resources/Slide35.BMP,3COE01,test11,j,475119,001,2023-08-22_11h40.28.354,drops_juice,2023.1.2,Win32,60.0060006,615adbcc02818092a39ec310,6482ffc4da57468e3568a8f3,64e4818a67a4a5f23bbc3bf1
space,1,3.6738,0,24,24,24,1,resources/Slide100.BMP,8IEU11,test12,space,475119,001,2023-08-22_11h40.28.354,drops_juice,2023.1.2,Win32,60.0060006,615adbcc02818092a39ec310,6482ffc4da57468e3568a8f3,64e4818a67a4a5f23bbc3bf1
j,1,3.2979,0,25,25,25,1,resources/Slide46.BMP,4COU01,test13,j,475119,001,2023-08-22_11h40.28.354,drops_juice,2023.1.2,Win32,60.0060006,615adbcc02818092a39ec310,6482ffc4da57468e3568a8f3,64e4818a67a4a5f23bbc3bf1
space,1,8.3379,0,26,26,26,1,resources/Slide101.BMP,8IEU12,test14,space,475119,001,2023-08-22_11h40.28.354,drops_juice,2023.1.2,Win32,60.0060006,615adbcc02818092a39ec310,6482ffc4da57468e3568a8f3,64e4818a67a4a5f23bbc3bf1
space,1,12.7478,0,27,27,27,1,resources/Slide79.BMP,7IEE01,test15,space,475119,001,2023-08-22_11h40.28.354,drops_juice,2023.1.2,Win32,60.0060006,615adbcc02818092a39ec310,6482ffc4da57468e3568a8f3,64e4818a67a4a5f23bbc3bf1
space,0,1.3165,0,28,28,28,1,resources/Slide21.BMP,1DR09,test16,j,475119,001,2023-08-22_11h40.28.354,drops_juice,2023.1.2,Win32,60.0060006,615adbcc02818092a39ec310,6482ffc4da57468e3568a8f3,64e4818a67a4a5f23bbc3bf1
j,0,1.345,0,29,29,29,1,resources/Slide76.BMP,6IIU09,test17,f,475119,001,2023-08-22_11h40.28.354,drops_juice,2023.1.2,Win32,60.0060006,615adbcc02818092a39ec310,6482ffc4da57468e3568a8f3,64e4818a67a4a5f23bbc3bf1
f,1,2.4771,0,30,30,30,1,resources/Slide44.BMP,3COE10,test18,f,475119,001,2023-08-22_11h40.28.354,drops_juice,2023.1.2,Win32,60.0060006,615adbcc02818092a39ec310,6482ffc4da57468e3568a8f3,64e4818a67a4a5f23bbc3bf1
j,1,1.5693,0,31,31,31,1,resources/Slide57.BMP,5IIE01,test19,j,475119,001,2023-08-22_11h40.28.354,drops_juice,2023.1.2,Win32,60.0060006,615adbcc02818092a39ec310,6482ffc4da57468e3568a8f3,64e4818a67a4a5f23bbc3bf1
j,1,1.2536,0,32,32,32,1,resources/Slide25.BMP,2IR02,test20,j,475119,001,2023-08-22_11h40.28.354,drops_juice,2023.1.2,Win32,60.0060006,615adbcc02818092a39ec310,6482ffc4da57468e3568a8f3,64e4818a67a4a5f23bbc3bf1
j,0,1.4784,0,33,33,33,1,resources/Slide87.BMP,7IEE09,test21,space,475119,001,2023-08-22_11h40.28.354,drops_juice,2023.1.2,Win32,60.0060006,615adbcc02818092a39ec310,6482ffc4da57468e3568a8f3,64e4818a67a4a5f23bbc3bf1
space,0,1.4263,0,34,34,34,1,resources/Slide66.BMP,5IIE10,test22,f,475119,001,2023-08-22_11h40.28.354,drops_juice,2023.1.2,Win32,60.0060006,615adbcc02818092a39ec310,6482ffc4da57468e3568a8f3,64e4818a67a4a5f23bbc3bf1
space,0,0.7703,0,35,35,35,1,resources/Slide47.BMP,4COU02,test23,f,475119,001,2023-08-22_11h40.28.354,drops_juice,2023.1.2,Win32,60.0060006,615adbcc02818092a39ec310,6482ffc4da57468e3568a8f3,64e4818a67a4a5f23bbc3bf1
space,0,1.0652,0,36,36,36,1,resources/Slide43.BMP,3COE09,test24,j,475119,001,2023-08-22_11h40.28.354,drops_juice,2023.1.2,Win32,60.0060006,615adbcc02818092a39ec310,6482ffc4da57468e3568a8f3,64e4818a67a4a5f23bbc3bf1
space,0,11.5334,0,37,37,37,1,resources/Slide65.BMP,5IIE09,test25,j,475119,001,2023-08-22_11h40.28.354,drops_juice,2023.1.2,Win32,60.0060006,615adbcc02818092a39ec310,6482ffc4da57468e3568a8f3,64e4818a67a4a5f23bbc3bf1
j,0,1.4126,0,38,38,38,1,resources/Slide24.BMP,2IR01,test26,f,475119,001,2023-08-22_11h40.28.354,drops_juice,2023.1.2,Win32,60.0060006,615adbcc02818092a39ec310,6482ffc4da57468e3568a8f3,64e4818a67a4a5f23bbc3bf1
space,0,1.2173,0,39,39,39,1,resources/Slide22.BMP,1DR10,test27,f,475119,001,2023-08-22_11h40.28.354,drops_juice,2023.1.2,Win32,60.0060006,615adbcc02818092a39ec310,6482ffc4da57468e3568a8f3,64e4818a67a4a5f23bbc3bf1
space,0,3.7797,0,40,40,40,1,resources/Slide69.BMP,6IIU02,test28,j,475119,001,2023-08-22_11h40.28.354,drops_juice,2023.1.2,Win32,60.0060006,615adbcc02818092a39ec310,6482ffc4da57468e3568a8f3,64e4818a67a4a5f23bbc3bf1
space,1,0.8001,0,41,41,41,1,resources/Slide91.BMP,8IEU02,test29,space,475119,001,2023-08-22_11h40.28.354,drops_juice,2023.1.2,Win32,60.0060006,615adbcc02818092a39ec310,6482ffc4da57468e3568a8f3,64e4818a67a4a5f23bbc3bf1
j,1,1.7799,0,42,42,42,1,resources/Slide13.BMP,1DR01,test30,j,475119,001,2023-08-22_11h40.28.354,drops_juice,2023.1.2,Win32,60.0060006,615adbcc02818092a39ec310,6482ffc4da57468e3568a8f3,64e4818a67a4a5f23bbc3bf1
j,1,1.5396,0,43,43,43,1,resources/Slide54.BMP,4COU09,test31,j,475119,001,2023-08-22_11h40.28.354,drops_juice,2023.1.2,Win32,60.0060006,615adbcc02818092a39ec310,6482ffc4da57468e3568a8f3,64e4818a67a4a5f23bbc3bf1
space,0,1.7584,0,44,44,44,1,resources/Slide58.BMP,5IIE02,test32,f,475119,001,2023-08-22_11h40.28.354,drops_juice,2023.1.2,Win32,60.0060006,615adbcc02818092a39ec310,6482ffc4da57468e3568a8f3,64e4818a67a4a5f23bbc3bf1
space,0,2.2914,0,45,45,45,1,resources/Slide41.BMP,3COE07,test33,j,475119,001,2023-08-22_11h40.28.354,drops_juice,2023.1.2,Win32,60.0060006,615adbcc02818092a39ec310,6482ffc4da57468e3568a8f3,64e4818a67a4a5f23bbc3bf1
f,1,1.7594,0,46,46,46,1,resources/Slide18.BMP,1DR06,test34,f,475119,001,2023-08-22_11h40.28.354,drops_juice,2023.1.2,Win32,60.0060006,615adbcc02818092a39ec310,6482ffc4da57468e3568a8f3,64e4818a67a4a5f23bbc3bf1
space,0,2.0878,0,47,47,47,1,resources/Slide73.BMP,6IIU06,test35,j,475119,001,2023-08-22_11h40.28.354,drops_juice,2023.1.2,Win32,60.0060006,615adbcc02818092a39ec310,6482ffc4da57468e3568a8f3,64e4818a67a4a5f23bbc3bf1
space,0,0.9801,0,48,48,48,1,resources/Slide26.BMP,2IR03,test36,f,475119,001,2023-08-22_11h40.28.354,drops_juice,2023.1.2,Win32,60.0060006,615adbcc02818092a39ec310,6482ffc4da57468e3568a8f3,64e4818a67a4a5f23bbc3bf1
space,1,0.8892,0,49,49,49,1,resources/Slide92.BMP,8IEU03,test37,space,475119,001,2023-08-22_11h40.28.354,drops_juice,2023.1.2,Win32,60.0060006,615adbcc02818092a39ec310,6482ffc4da57468e3568a8f3,64e4818a67a4a5f23bbc3bf1
j,0,2.5712,0,50,50,50,1,resources/Slide40.BMP,3COE06,test38,f,475119,001,2023-08-22_11h40.28.354,drops_juice,2023.1.2,Win32,60.0060006,615adbcc02818092a39ec310,6482ffc4da57468e3568a8f3,64e4818a67a4a5f23bbc3bf1
space,0,1.499,0,51,51,51,1,resources/Slide71.BMP,6IIU04,test39,j,475119,001,2023-08-22_11h40.28.354,drops_juice,2023.1.2,Win32,60.0060006,615adbcc02818092a39ec310,6482ffc4da57468e3568a8f3,64e4818a67a4a5f23bbc3bf1
space,0,1.1565,0,52,52,52,1,resources/Slide28.BMP,2IR05,test40,f,475119,001,2023-08-22_11h40.28.354,drops_juice,2023.1.2,Win32,60.0060006,615adbcc02818092a39ec310,6482ffc4da57468e3568a8f3,64e4818a67a4a5f23bbc3bf1
space,0,0.9438,0,53,53,53,1,resources/Slide38.BMP,3COE04,test41,f,475119,001,2023-08-22_11h40.28.354,drops_juice,2023.1.2,Win32,60.0060006,615adbcc02818092a39ec310,6482ffc4da57468e3568a8f3,64e4818a67a4a5f23bbc3bf1
space,1,1.0244,0,54,54,54,1,resources/Slide94.BMP,8IEU05,test42,space,475119,001,2023-08-22_11h40.28.354,drops_juice,2023.1.2,Win32,60.0060006,615adbcc02818092a39ec310,6482ffc4da57468e3568a8f3,64e4818a67a4a5f23bbc3bf1
space,0,3.0209,0,55,55,55,1,resources/Slide29.BMP,2IR06,test43,j,475119,001,2023-08-22_11h40.28.354,drops_juice,2023.1.2,Win32,60.0060006,615adbcc02818092a39ec310,6482ffc4da57468e3568a8f3,64e4818a67a4a5f23bbc3bf1
f,1,2.7313,0,56,56,56,1,resources/Slide60.BMP,5IIE04,test44,f,475119,001,2023-08-22_11h40.28.354,drops_juice,2023.1.2,Win32,60.0060006,615adbcc02818092a39ec310,6482ffc4da57468e3568a8f3,64e4818a67a4a5f23bbc3bf1
j,0,1.3242,0,57,57,57,1,resources/Slide70.BMP,6IIU03,test45,f,475119,001,2023-08-22_11h40.28.354,drops_juice,2023.1.2,Win32,60.0060006,615adbcc02818092a39ec310,6482ffc4da57468e3568a8f3,64e4818a67a4a5f23bbc3bf1
j,1,2.6389,0,58,58,58,1,resources/Slide17.BMP,1DR05,test46,j,475119,001,2023-08-22_11h40.28.354,drops_juice,2023.1.2,Win32,60.0060006,615adbcc02818092a39ec310,6482ffc4da57468e3568a8f3,64e4818a67a4a5f23bbc3bf1
space,1,1.0301,0,59,59,59,1,resources/Slide95.BMP,8IEU06,test47,space,475119,001,2023-08-22_11h40.28.354,drops_juice,2023.1.2,Win32,60.0060006,615adbcc02818092a39ec310,6482ffc4da57468e3568a8f3,64e4818a67a4a5f23bbc3bf1
space,0,0.7501,0,60,60,60,1,resources/Slide37.BMP,3COE03,test48,j,475119,001,2023-08-22_11h40.28.354,drops_juice,2023.1.2,Win32,60.0060006,615adbcc02818092a39ec310,6482ffc4da57468e3568a8f3,64e4818a67a4a5f23bbc3bf1
f,0,2.2439,0,61,61,61,1,resources/Slide81.BMP,7IEE03,test49,space,475119,001,2023-08-22_11h40.28.354,drops_juice,2023.1.2,Win32,60.0060006,615adbcc02818092a39ec310,6482ffc4da57468e3568a8f3,64e4818a67a4a5f23bbc3bf1
space,0,1.1883,0,62,62,62,1,resources/Slide15.BMP,1DR03,test50,j,475119,001,2023-08-22_11h40.28.354,drops_juice,2023.1.2,Win32,60.0060006,615adbcc02818092a39ec310,6482ffc4da57468e3568a8f3,64e4818a67a4a5f23bbc3bf1
j,0,2.9223,0,63,63,63,1,resources/Slide30.BMP,2IR07,test51,f,475119,001,2023-08-22_11h40.28.354,drops_juice,2023.1.2,Win32,60.0060006,615adbcc02818092a39ec310,6482ffc4da57468e3568a8f3,64e4818a67a4a5f23bbc3bf1
j,0,3.9326,0,64,64,64,1,resources/Slide82.BMP,7IEE04,test52,space,475119,001,2023-08-22_11h40.28.354,drops_juice,2023.1.2,Win32,60.0060006,615adbcc02818092a39ec310,6482ffc4da57468e3568a8f3,64e4818a67a4a5f23bbc3bf1
space,0,1.313,0,65,65,65,1,resources/Slide16.BMP,1DR04,test53,f,475119,001,2023-08-22_11h40.28.354,drops_juice,2023.1.2,Win32,60.0060006,615adbcc02818092a39ec310,6482ffc4da57468e3568a8f3,64e4818a67a4a5f23bbc3bf1
f,0,2.8237,0,66,66,66,1,resources/Slide84.BMP,7IEE06,test54,space,475119,001,2023-08-22_11h40.28.354,drops_juice,2023.1.2,Win32,60.0060006,615adbcc02818092a39ec310,6482ffc4da57468e3568a8f3,64e4818a67a4a5f23bbc3bf1
space,1,6.6085,0,67,67,67,1,resources/Slide93.BMP,8IEU04,test55,space,475119,001,2023-08-22_11h40.28.354,drops_juice,2023.1.2,Win32,60.0060006,615adbcc02818092a39ec310,6482ffc4da57468e3568a8f3,64e4818a67a4a5f23bbc3bf1
j,1,5.0297,0,68,68,68,1,resources/Slide48.BMP,4COU03,test56,j,475119,001,2023-08-22_11h40.28.354,drops_juice,2023.1.2,Win32,60.0060006,615adbcc02818092a39ec310,6482ffc4da57468e3568a8f3,64e4818a67a4a5f23bbc3bf1
j,0,1.9893,0,69,69,69,1,resources/Slide85.BMP,7IEE07,test57,space,475119,001,2023-08-22_11h40.28.354,drops_juice,2023.1.2,Win32,60.0060006,615adbcc02818092a39ec310,6482ffc4da57468e3568a8f3,64e4818a67a4a5f23bbc3bf1
j,1,2.1095,0,70,70,70,1,resources/Slide50.BMP,4COU05,test58,j,475119,001,2023-08-22_11h40.28.354,drops_juice,2023.1.2,Win32,60.0060006,615adbcc02818092a39ec310,6482ffc4da57468e3568a8f3,64e4818a67a4a5f23bbc3bf1
space,1,1.0607,0,71,71,71,1,resources/Slide99.BMP,8IEU10,test59,space,475119,001,2023-08-22_11h40.28.354,drops_juice,2023.1.2,Win32,60.0060006,615adbcc02818092a39ec310,6482ffc4da57468e3568a8f3,64e4818a67a4a5f23bbc3bf1
j,1,1.2569,0,72,72,72,1,resources/Slide39.BMP,3COE05,test60,j,475119,001,2023-08-22_11h40.28.354,drops_juice,2023.1.2,Win32,60.0060006,615adbcc02818092a39ec310,6482ffc4da57468e3568a8f3,64e4818a67a4a5f23bbc3bf1
space,0,1.0882,0,73,73,73,1,resources/Slide72.BMP,6IIU05,test61,f,475119,001,2023-08-22_11h40.28.354,drops_juice,2023.1.2,Win32,60.0060006,615adbcc02818092a39ec310,6482ffc4da57468e3568a8f3,64e4818a67a4a5f23bbc3bf1
j,0,1.879,0,74,74,74,1,resources/Slide64.BMP,5IIE08,test62,f,475119,001,2023-08-22_11h40.28.354,drops_juice,2023.1.2,Win32,60.0060006,615adbcc02818092a39ec310,6482ffc4da57468e3568a8f3,64e4818a67a4a5f23bbc3bf1
space,0,1.2288,0,75,75,75,1,resources/Slide31.BMP,2IR08,test63,j,475119,001,2023-08-22_11h40.28.354,drops_juice,2023.1.2,Win32,60.0060006,615adbcc02818092a39ec310,6482ffc4da57468e3568a8f3,64e4818a67a4a5f23bbc3bf1
f,1,1.9652,0,76,76,76,1,resources/Slide62.BMP,5IIE06,test64,f,475119,001,2023-08-22_11h40.28.354,drops_juice,2023.1.2,Win32,60.0060006,615adbcc02818092a39ec310,6482ffc4da57468e3568a8f3,64e4818a67a4a5f23bbc3bf1
f,1,1.2947,0,77,77,77,1,resources/Slide49.BMP,4COU04,test65,f,475119,001,2023-08-22_11h40.28.354,drops_juice,2023.1.2,Win32,60.0060006,615adbcc02818092a39ec310,6482ffc4da57468e3568a8f3,64e4818a67a4a5f23bbc3bf1
j,0,1.9655,0,78,78,78,1,resources/Slide83.BMP,7IEE05,test66,space,475119,001,2023-08-22_11h40.28.354,drops_juice,2023.1.2,Win32,60.0060006,615adbcc02818092a39ec310,6482ffc4da57468e3568a8f3,64e4818a67a4a5f23bbc3bf1
space,0,1.3612,0,79,79,79,1,resources/Slide59.BMP,5IIE03,test67,j,475119,001,2023-08-22_11h40.28.354,drops_juice,2023.1.2,Win32,60.0060006,615adbcc02818092a39ec310,6482ffc4da57468e3568a8f3,64e4818a67a4a5f23bbc3bf1
space,0,1.1393,0,80,80,80,1,resources/Slide51.BMP,4COU06,test68,f,475119,001,2023-08-22_11h40.28.354,drops_juice,2023.1.2,Win32,60.0060006,615adbcc02818092a39ec310,6482ffc4da57468e3568a8f3,64e4818a67a4a5f23bbc3bf1
space,1,1.0419,0,81,81,81,1,resources/Slide97.BMP,8IEU08,test69,space,475119,001,2023-08-22_11h40.28.354,drops_juice,2023.1.2,Win32,60.0060006,615adbcc02818092a39ec310,6482ffc4da57468e3568a8f3,64e4818a67a4a5f23bbc3bf1
f,1,2.3373,0,82,82,82,1,resources/Slide20.BMP,1DR08,test70,f,475119,001,2023-08-22_11h40.28.354,drops_juice,2023.1.2,Win32,60.0060006,615adbcc02818092a39ec310,6482ffc4da57468e3568a8f3,64e4818a67a4a5f23bbc3bf1
space,1,2.3577,0,83,83,83,1,resources/Slide98.BMP,8IEU09,test71,space,475119,001,2023-08-22_11h40.28.354,drops_juice,2023.1.2,Win32,60.0060006,615adbcc02818092a39ec310,6482ffc4da57468e3568a8f3,64e4818a67a4a5f23bbc3bf1
f,0,2.1875,0,84,84,84,1,resources/Slide86.BMP,7IEE08,test72,space,475119,001,2023-08-22_11h40.28.354,drops_juice,2023.1.2,Win32,60.0060006,615adbcc02818092a39ec310,6482ffc4da57468e3568a8f3,64e4818a67a4a5f23bbc3bf1
j,1,3.6117,0,85,85,85,1,resources/Slide52.BMP,4COU07,test73,j,475119,001,2023-08-22_11h40.28.354,drops_juice,2023.1.2,Win32,60.0060006,615adbcc02818092a39ec310,6482ffc4da57468e3568a8f3,64e4818a67a4a5f23bbc3bf1
space,0,2.1227,0,86,86,86,1,resources/Slide63.BMP,5IIE07,test74,j,475119,001,2023-08-22_11h40.28.354,drops_juice,2023.1.2,Win32,60.0060006,615adbcc02818092a39ec310,6482ffc4da57468e3568a8f3,64e4818a67a4a5f23bbc3bf1
f,1,2.7216,0,87,87,87,1,resources/Slide42.BMP,3COE08,test75,f,475119,001,2023-08-22_11h40.28.354,drops_juice,2023.1.2,Win32,60.0060006,615adbcc02818092a39ec310,6482ffc4da57468e3568a8f3,64e4818a67a4a5f23bbc3bf1
space,0,2.6386,0,88,88,88,1,resources/Slide75.BMP,6IIU08,test76,j,475119,001,2023-08-22_11h40.28.354,drops_juice,2023.1.2,Win32,60.0060006,615adbcc02818092a39ec310,6482ffc4da57468e3568a8f3,64e4818a67a4a5f23bbc3bf1
j,0,1.6809,0,89,89,89,1,resources/Slide96.BMP,8IEU07,test77,space,475119,001,2023-08-22_11h40.28.354,drops_juice,2023.1.2,Win32,60.0060006,615adbcc02818092a39ec310,6482ffc4da57468e3568a8f3,64e4818a67a4a5f23bbc3bf1
space,0,2.2453,0,90,90,90,1,resources/Slide53.BMP,4COU08,test78,f,475119,001,2023-08-22_11h40.28.354,drops_juice,2023.1.2,Win32,60.0060006,615adbcc02818092a39ec310,6482ffc4da57468e3568a8f3,64e4818a67a4a5f23bbc3bf1
space,0,2.9784,0,91,91,91,1,resources/Slide19.BMP,1DR07,test79,j,475119,001,2023-08-22_11h40.28.354,drops_juice,2023.1.2,Win32,60.0060006,615adbcc02818092a39ec310,6482ffc4da57468e3568a8f3,64e4818a67a4a5f23bbc3bf1
j,0,1.5404,0,92,92,92,1,resources/Slide74.BMP,6IIU07,test80,f,475119,001,2023-08-22_11h40.28.354,drops_juice,2023.1.2,Win32,60.0060006,615adbcc02818092a39ec310,6482ffc4da57468e3568a8f3,64e4818a67a4a5f23bbc3bf1
f,0,1.2277,0,93,93,93,1,resources/Slide61.BMP,5IIE05,test81,j,475119,001,2023-08-22_11h40.28.354,drops_juice,2023.1.2,Win32,60.0060006,615adbcc02818092a39ec310,6482ffc4da57468e3568a8f3,64e4818a67a4a5f23bbc3bf1
f,0,1.2404,0,94,94,94,1,resources/Slide27.BMP,2IR04,test82,j,475119,001,2023-08-22_11h40.28.354,drops_juice,2023.1.2,Win32,60.0060006,615adbcc02818092a39ec310,6482ffc4da57468e3568a8f3,64e4818a67a4a5f23bbc3bf1
space,0,4.8133,0,95,95,95,1,resources/Slide102.bmp,ins,end of test,,475119,001,2023-08-22_11h40.28.354,drops_juice,2023.1.2,Win32,60.0060006,615adbcc02818092a39ec310,6482ffc4da57468e3568a8f3,64e4818a67a4a5f23bbc3bf1
space,0,61.6564,0,96,96,96,1,resources/Slide01.bmp,ins,instruction_g,,475119,001,2023-08-22_11h40.28.354,drops_juice,2023.1.2,Win32,60.0060006,615adbcc02818092a39ec310,6482ffc4da57468e3568a8f3,64e4818a67a4a5f23bbc3bf1
j,0,7.106,0,97,97,97,1,resources/Slide02.bmp,ins,practice_start,,475119,001,2023-08-22_11h40.28.354,drops_juice,2023.1.2,Win32,60.0060006,615adbcc02818092a39ec310,6482ffc4da57468e3568a8f3,64e4818a67a4a5f23bbc3bf1
j,1,2.9521,0,98,98,98,1,resources/Slide03.BMP,1DR,pract1,j,475119,001,2023-08-22_11h40.28.354,drops_juice,2023.1.2,Win32,60.0060006,615adbcc02818092a39ec310,6482ffc4da57468e3568a8f3,64e4818a67a4a5f23bbc3bf1
space,0,29.2478,0,99,99,99,1,resources/Slide04.BMP,2IR,pract2,f,475119,001,2023-08-22_11h40.28.354,drops_juice,2023.1.2,Win32,60.0060006,615adbcc02818092a39ec310,6482ffc4da57468e3568a8f3,64e4818a67a4a5f23bbc3bf1
j,0,4.6132,0,100,100,100,1,resources/Slide05.BMP,8IEU,pract3,space,475119,001,2023-08-22_11h40.28.354,drops_juice,2023.1.2,Win32,60.0060006,615adbcc02818092a39ec310,6482ffc4da57468e3568a8f3,64e4818a67a4a5f23bbc3bf1
space,0,9.9742,0,101,101,101,1,resources/Slide06.BMP,3COE,pract4,j,475119,001,2023-08-22_11h40.28.354,drops_juice,2023.1.2,Win32,60.0060006,615adbcc02818092a39ec310,6482ffc4da57468e3568a8f3,64e4818a67a4a5f23bbc3bf1
j,1,8.2963,0,102,102,102,1,resources/Slide07.BMP,4COU,pract5,j,475119,001,2023-08-22_11h40.28.354,drops_juice,2023.1.2,Win32,60.0060006,615adbcc02818092a39ec310,6482ffc4da57468e3568a8f3,64e4818a67a4a5f23bbc3bf1
j,0,8.0762,0,103,103,103,1,resources/Slide08.BMP,5IIE,pract6,f,475119,001,2023-08-22_11h40.28.354,drops_juice,2023.1.2,Win32,60.0060006,615adbcc02818092a39ec310,6482ffc4da57468e3568a8f3,64e4818a67a4a5f23bbc3bf1
j,0,5.3738,0,104,104,104,1,resources/Slide09.BMP,6IIU,pract7,f,475119,001,2023-08-22_11h40.28.354,drops_juice,2023.1.2,Win32,60.0060006,615adbcc02818092a39ec310,6482ffc4da57468e3568a8f3,64e4818a67a4a5f23bbc3bf1
space,1,2.1016,0,105,105,105,1,resources/Slide010.BMP,7IEE,pract8,space,475119,001,2023-08-22_11h40.28.354,drops_juice,2023.1.2,Win32,60.0060006,615adbcc02818092a39ec310,6482ffc4da57468e3568a8f3,64e4818a67a4a5f23bbc3bf1
space,0,4.9822,0,106,106,106,1,resources/Slide011.bmp,ins,test_start,,475119,001,2023-08-22_11h40.28.354,drops_juice,2023.1.2,Win32,60.0060006,615adbcc02818092a39ec310,6482ffc4da57468e3568a8f3,64e4818a67a4a5f23bbc3bf1
j,1,7.5398,0,107,107,107,1,resources/Slide03.BMP,1DR,dummy1,j,475119,001,2023-08-22_11h40.28.354,drops_juice,2023.1.2,Win32,60.0060006,615adbcc02818092a39ec310,6482ffc4da57468e3568a8f3,64e4818a67a4a5f23bbc3bf1
space,1,1.5749,0,108,108,108,1,resources/Slide010.BMP,7IEE,dummy2,space,475119,001,2023-08-22_11h40.28.354,drops_juice,2023.1.2,Win32,60.0060006,615adbcc02818092a39ec310,6482ffc4da57468e3568a8f3,64e4818a67a4a5f23bbc3bf1
f,1,12.5935,0,109,109,109,1,resources/Slide036.BMP,3COE02,test01,f,475119,001,2023-08-22_11h40.28.354,drops_juice,2023.1.2,Win32,60.0060006,615adbcc02818092a39ec310,6482ffc4da57468e3568a8f3,64e4818a67a4a5f23bbc3bf1
space,1,1.1695,0,110,110,110,1,resources/Slide080.BMP,7IEE02,test02,space,475119,001,2023-08-22_11h40.28.354,drops_juice,2023.1.2,Win32,60.0060006,615adbcc02818092a39ec310,6482ffc4da57468e3568a8f3,64e4818a67a4a5f23bbc3bf1
f,1,1.6004,0,111,111,111,1,resources/Slide055.BMP,4COU10,test03,f,475119,001,2023-08-22_11h40.28.354,drops_juice,2023.1.2,Win32,60.0060006,615adbcc02818092a39ec310,6482ffc4da57468e3568a8f3,64e4818a67a4a5f23bbc3bf1
space,0,9.3911,0,112,112,112,1,resources/Slide077.BMP,6IIU10,test04,j,475119,001,2023-08-22_11h40.28.354,drops_juice,2023.1.2,Win32,60.0060006,615adbcc02818092a39ec310,6482ffc4da57468e3568a8f3,64e4818a67a4a5f23bbc3bf1
f,0,4.1469,0,113,113,113,1,resources/Slide033.BMP,2IR10,test05,j,475119,001,2023-08-22_11h40.28.354,drops_juice,2023.1.2,Win32,60.0060006,615adbcc02818092a39ec310,6482ffc4da57468e3568a8f3,64e4818a67a4a5f23bbc3bf1
j,0,11.2814,0,114,114,114,1,resources/Slide090.BMP,8IEU01,test06,space,475119,001,2023-08-22_11h40.28.354,drops_juice,2023.1.2,Win32,60.0060006,615adbcc02818092a39ec310,6482ffc4da57468e3568a8f3,64e4818a67a4a5f23bbc3bf1
f,1,3.8307,0,115,115,115,1,resources/Slide014.BMP,1DR02,test07,f,475119,001,2023-08-22_11h40.28.354,drops_juice,2023.1.2,Win32,60.0060006,615adbcc02818092a39ec310,6482ffc4da57468e3568a8f3,64e4818a67a4a5f23bbc3bf1
space,1,1.3227,0,116,116,116,1,resources/Slide088.BMP,7IEE10,test08,space,475119,001,2023-08-22_11h40.28.354,drops_juice,2023.1.2,Win32,60.0060006,615adbcc02818092a39ec310,6482ffc4da57468e3568a8f3,64e4818a67a4a5f23bbc3bf1
j,0,27.1175,0,117,117,117,1,resources/Slide032.BMP,2IR09,test09,f,475119,001,2023-08-22_11h40.28.354,drops_juice,2023.1.2,Win32,60.0060006,615adbcc02818092a39ec310,6482ffc4da57468e3568a8f3,64e4818a67a4a5f23bbc3bf1
j,0,3.5167,0,118,118,118,1,resources/Slide068.BMP,6IIU01,test10,f,475119,001,2023-08-22_11h40.28.354,drops_juice,2023.1.2,Win32,60.0060006,615adbcc02818092a39ec310,6482ffc4da57468e3568a8f3,64e4818a67a4a5f23bbc3bf1
j,1,0.7652,0,119,119,119,1,resources/Slide035.BMP,3COE01,test11,j,475119,001,2023-08-22_11h40.28.354,drops_juice,2023.1.2,Win32,60.0060006,615adbcc02818092a39ec310,6482ffc4da57468e3568a8f3,64e4818a67a4a5f23bbc3bf1
j,0,2.4289,0,120,120,120,1,resources/Slide0100.BMP,8IEU11,test12,space,475119,001,2023-08-22_11h40.28.354,drops_juice,2023.1.2,Win32,60.0060006,615adbcc02818092a39ec310,6482ffc4da57468e3568a8f3,64e4818a67a4a5f23bbc3bf1
j,1,1.46,0,121,121,121,1,resources/Slide046.BMP,4COU01,test13,j,475119,001,2023-08-22_11h40.28.354,drops_juice,2023.1.2,Win32,60.0060006,615adbcc02818092a39ec310,6482ffc4da57468e3568a8f3,64e4818a67a4a5f23bbc3bf1
f,0,2.5234,0,122,122,122,1,resources/Slide0101.BMP,8IEU12,test14,space,475119,001,2023-08-22_11h40.28.354,drops_juice,2023.1.2,Win32,60.0060006,615adbcc02818092a39ec310,6482ffc4da57468e3568a8f3,64e4818a67a4a5f23bbc3bf1
space,1,1.0246,0,123,123,123,1,resources/Slide079.BMP,7IEE01,test15,space,475119,001,2023-08-22_11h40.28.354,drops_juice,2023.1.2,Win32,60.0060006,615adbcc02818092a39ec310,6482ffc4da57468e3568a8f3,64e4818a67a4a5f23bbc3bf1
j,1,1.4396,0,124,124,124,1,resources/Slide021.BMP,1DR09,test16,j,475119,001,2023-08-22_11h40.28.354,drops_juice,2023.1.2,Win32,60.0060006,615adbcc02818092a39ec310,6482ffc4da57468e3568a8f3,64e4818a67a4a5f23bbc3bf1
j,0,1.8015,0,125,125,125,1,resources/Slide076.BMP,6IIU09,test17,f,475119,001,2023-08-22_11h40.28.354,drops_juice,2023.1.2,Win32,60.0060006,615adbcc02818092a39ec310,6482ffc4da57468e3568a8f3,64e4818a67a4a5f23bbc3bf1
space,0,2.2097,0,126,126,126,1,resources/Slide044.BMP,3COE10,test18,f,475119,001,2023-08-22_11h40.28.354,drops_juice,2023.1.2,Win32,60.0060006,615adbcc02818092a39ec310,6482ffc4da57468e3568a8f3,64e4818a67a4a5f23bbc3bf1
space,0,3.3999,0,127,127,127,1,resources/Slide057.BMP,5IIE01,test19,j,475119,001,2023-08-22_11h40.28.354,drops_juice,2023.1.2,Win32,60.0060006,615adbcc02818092a39ec310,6482ffc4da57468e3568a8f3,64e4818a67a4a5f23bbc3bf1
space,0,3.2843,0,128,128,128,1,resources/Slide025.BMP,2IR02,test20,j,475119,001,2023-08-22_11h40.28.354,drops_juice,2023.1.2,Win32,60.0060006,615adbcc02818092a39ec310,6482ffc4da57468e3568a8f3,64e4818a67a4a5f23bbc3bf1
space,1,0.9912,0,129,129,129,1,resources/Slide087.BMP,7IEE09,test21,space,475119,001,2023-08-22_11h40.28.354,drops_juice,2023.1.2,Win32,60.0060006,615adbcc02818092a39ec310,6482ffc4da57468e3568a8f3,64e4818a67a4a5f23bbc3bf1
space,0,2.0177,0,130,130,130,1,resources/Slide066.BMP,5IIE10,test22,f,475119,001,2023-08-22_11h40.28.354,drops_juice,2023.1.2,Win32,60.0060006,615adbcc02818092a39ec310,6482ffc4da57468e3568a8f3,64e4818a67a4a5f23bbc3bf1
f,1,2.0081,0,131,131,131,1,resources/Slide047.BMP,4COU02,test23,f,475119,001,2023-08-22_11h40.28.354,drops_juice,2023.1.2,Win32,60.0060006,615adbcc02818092a39ec310,6482ffc4da57468e3568a8f3,64e4818a67a4a5f23bbc3bf1
space,0,3.5418,0,132,132,132,1,resources/Slide043.BMP,3COE09,test24,j,475119,001,2023-08-22_11h40.28.354,drops_juice,2023.1.2,Win32,60.0060006,615adbcc02818092a39ec310,6482ffc4da57468e3568a8f3,64e4818a67a4a5f23bbc3bf1
space,0,3.1601,0,133,133,133,1,resources/Slide065.BMP,5IIE09,test25,j,475119,001,2023-08-22_11h40.28.354,drops_juice,2023.1.2,Win32,60.0060006,615adbcc02818092a39ec310,6482ffc4da57468e3568a8f3,64e4818a67a4a5f23bbc3bf1
j,0,1.7645,0,134,134,134,1,resources/Slide024.BMP,2IR01,test26,f,475119,001,2023-08-22_11h40.28.354,drops_juice,2023.1.2,Win32,60.0060006,615adbcc02818092a39ec310,6482ffc4da57468e3568a8f3,64e4818a67a4a5f23bbc3bf1
f,1,2.1418,0,135,135,135,1,resources/Slide022.BMP,1DR10,test27,f,475119,001,2023-08-22_11h40.28.354,drops_juice,2023.1.2,Win32,60.0060006,615adbcc02818092a39ec310,6482ffc4da57468e3568a8f3,64e4818a67a4a5f23bbc3bf1
f,0,1.8811,0,136,136,136,1,resources/Slide069.BMP,6IIU02,test28,j,475119,001,2023-08-22_11h40.28.354,drops_juice,2023.1.2,Win32,60.0060006,615adbcc02818092a39ec310,6482ffc4da57468e3568a8f3,64e4818a67a4a5f23bbc3bf1
f,0,1.4169,0,137,137,137,1,resources/Slide091.BMP,8IEU02,test29,space,475119,001,2023-08-22_11h40.28.354,drops_juice,2023.1.2,Win32,60.0060006,615adbcc02818092a39ec310,6482ffc4da57468e3568a8f3,64e4818a67a4a5f23bbc3bf1
j,1,3.0259,0,138,138,138,1,resources/Slide013.BMP,1DR01,test30,j,475119,001,2023-08-22_11h40.28.354,drops_juice,2023.1.2,Win32,60.0060006,615adbcc02818092a39ec310,6482ffc4da57468e3568a8f3,64e4818a67a4a5f23bbc3bf1
j,1,1.257,0,139,139,139,1,resources/Slide054.BMP,4COU09,test31,j,475119,001,2023-08-22_11h40.28.354,drops_juice,2023.1.2,Win32,60.0060006,615adbcc02818092a39ec310,6482ffc4da57468e3568a8f3,64e4818a67a4a5f23bbc3bf1
space,0,1.9155,0,140,140,140,1,resources/Slide058.BMP,5IIE02,test32,f,475119,001,2023-08-22_11h40.28.354,drops_juice,2023.1.2,Win32,60.0060006,615adbcc02818092a39ec310,6482ffc4da57468e3568a8f3,64e4818a67a4a5f23bbc3bf1
j,1,1.7064,0,141,141,141,1,resources/Slide041.BMP,3COE07,test33,j,475119,001,2023-08-22_11h40.28.354,drops_juice,2023.1.2,Win32,60.0060006,615adbcc02818092a39ec310,6482ffc4da57468e3568a8f3,64e4818a67a4a5f23bbc3bf1
f,1,1.3295,0,142,142,142,1,resources/Slide018.BMP,1DR06,test34,f,475119,001,2023-08-22_11h40.28.354,drops_juice,2023.1.2,Win32,60.0060006,615adbcc02818092a39ec310,6482ffc4da57468e3568a8f3,64e4818a67a4a5f23bbc3bf1
f,0,1.6874,0,143,143,143,1,resources/Slide073.BMP,6IIU06,test35,j,475119,001,2023-08-22_11h40.28.354,drops_juice,2023.1.2,Win32,60.0060006,615adbcc02818092a39ec310,6482ffc4da57468e3568a8f3,64e4818a67a4a5f23bbc3bf1
space,0,2.5752,0,144,144,144,1,resources/Slide026.BMP,2IR03,test36,f,475119,001,2023-08-22_11h40.28.354,drops_juice,2023.1.2,Win32,60.0060006,615adbcc02818092a39ec310,6482ffc4da57468e3568a8f3,64e4818a67a4a5f23bbc3bf1
j,0,2.9183,0,145,145,145,1,resources/Slide092.BMP,8IEU03,test37,space,475119,001,2023-08-22_11h40.28.354,drops_juice,2023.1.2,Win32,60.0060006,615adbcc02818092a39ec310,6482ffc4da57468e3568a8f3,64e4818a67a4a5f23bbc3bf1
space,0,3.5875,0,146,146,146,1,resources/Slide040.BMP,3COE06,test38,f,475119,001,2023-08-22_11h40.28.354,drops_juice,2023.1.2,Win32,60.0060006,615adbcc02818092a39ec310,6482ffc4da57468e3568a8f3,64e4818a67a4a5f23bbc3bf1
f,0,5.4061,0,147,147,147,1,resources/Slide071.BMP,6IIU04,test39,j,475119,001,2023-08-22_11h40.28.354,drops_juice,2023.1.2,Win32,60.0060006,615adbcc02818092a39ec310,6482ffc4da57468e3568a8f3,64e4818a67a4a5f23bbc3bf1
j,0,3.6798,0,148,148,148,1,resources/Slide028.BMP,2IR05,test40,f,475119,001,2023-08-22_11h40.28.354,drops_juice,2023.1.2,Win32,60.0060006,615adbcc02818092a39ec310,6482ffc4da57468e3568a8f3,64e4818a67a4a5f23bbc3bf1
space,0,3.3147,0,149,149,149,1,resources/Slide038.BMP,3COE04,test41,f,475119,001,2023-08-22_11h40.28.354,drops_juice,2023.1.2,Win32,60.0060006,615adbcc02818092a39ec310,6482ffc4da57468e3568a8f3,64e4818a67a4a5f23bbc3bf1
j,0,2.3528,0,150,150,150,1,resources/Slide094.BMP,8IEU05,test42,space,475119,001,2023-08-22_11h40.28.354,drops_juice,2023.1.2,Win32,60.0060006,615adbcc02818092a39ec310,6482ffc4da57468e3568a8f3,64e4818a67a4a5f23bbc3bf1
f,0,7.6833,0,151,151,151,1,resources/Slide029.BMP,2IR06,test43,j,475119,001,2023-08-22_11h40.28.354,drops_juice,2023.1.2,Win32,60.0060006,615adbcc02818092a39ec310,6482ffc4da57468e3568a8f3,64e4818a67a4a5f23bbc3bf1
space,0,1.6006,0,152,152,152,1,resources/Slide060.BMP,5IIE04,test44,f,475119,001,2023-08-22_11h40.28.354,drops_juice,2023.1.2,Win32,60.0060006,615adbcc02818092a39ec310,6482ffc4da57468e3568a8f3,64e4818a67a4a5f23bbc3bf1
j,0,8.0382,0,153,153,153,1,resources/Slide070.BMP,6IIU03,test45,f,475119,001,2023-08-22_11h40.28.354,drops_juice,2023.1.2,Win32,60.0060006,615adbcc02818092a39ec310,6482ffc4da57468e3568a8f3,64e4818a67a4a5f23bbc3bf1
j,1,1.931,0,154,154,154,1,resources/Slide017.BMP,1DR05,test46,j,475119,001,2023-08-22_11h40.28.354,drops_juice,2023.1.2,Win32,60.0060006,615adbcc02818092a39ec310,6482ffc4da57468e3568a8f3,64e4818a67a4a5f23bbc3bf1
f,0,11.4775,0,155,155,155,1,resources/Slide095.BMP,8IEU06,test47,space,475119,001,2023-08-22_11h40.28.354,drops_juice,2023.1.2,Win32,60.0060006,615adbcc02818092a39ec310,6482ffc4da57468e3568a8f3,64e4818a67a4a5f23bbc3bf1
j,1,3.0556,0,156,156,156,1,resources/Slide037.BMP,3COE03,test48,j,475119,001,2023-08-22_11h40.28.354,drops_juice,2023.1.2,Win32,60.0060006,615adbcc02818092a39ec310,6482ffc4da57468e3568a8f3,64e4818a67a4a5f23bbc3bf1
space,1,1.2904,0,157,157,157,1,resources/Slide081.BMP,7IEE03,test49,space,475119,001,2023-08-22_11h40.28.354,drops_juice,2023.1.2,Win32,60.0060006,615adbcc02818092a39ec310,6482ffc4da57468e3568a8f3,64e4818a67a4a5f23bbc3bf1
space,0,3.2981,0,158,158,158,1,resources/Slide015.BMP,1DR03,test50,j,475119,001,2023-08-22_11h40.28.354,drops_juice,2023.1.2,Win32,60.0060006,615adbcc02818092a39ec310,6482ffc4da57468e3568a8f3,64e4818a67a4a5f23bbc3bf1
j,0,4.6824,0,159,159,159,1,resources/Slide030.BMP,2IR07,test51,f,475119,001,2023-08-22_11h40.28.354,drops_juice,2023.1.2,Win32,60.0060006,615adbcc02818092a39ec310,6482ffc4da57468e3568a8f3,64e4818a67a4a5f23bbc3bf1
space,1,1.9094,0,160,160,160,1,resources/Slide082.BMP,7IEE04,test52,space,475119,001,2023-08-22_11h40.28.354,drops_juice,2023.1.2,Win32,60.0060006,615adbcc02818092a39ec310,6482ffc4da57468e3568a8f3,64e4818a67a4a5f23bbc3bf1
f,1,1.9209,0,161,161,161,1,resources/Slide016.BMP,1DR04,test53,f,475119,001,2023-08-22_11h40.28.354,drops_juice,2023.1.2,Win32,60.0060006,615adbcc02818092a39ec310,6482ffc4da57468e3568a8f3,64e4818a67a4a5f23bbc3bf1
space,1,1.041,0,162,162,162,1,resources/Slide084.BMP,7IEE06,test54,space,475119,001,2023-08-22_11h40.28.354,drops_juice,2023.1.2,Win32,60.0060006,615adbcc02818092a39ec310,6482ffc4da57468e3568a8f3,64e4818a67a4a5f23bbc3bf1
f,0,2.2964,0,163,163,163,1,resources/Slide093.BMP,8IEU04,test55,space,475119,001,2023-08-22_11h40.28.354,drops_juice,2023.1.2,Win32,60.0060006,615adbcc02818092a39ec310,6482ffc4da57468e3568a8f3,64e4818a67a4a5f23bbc3bf1
j,1,3.3026,0,164,164,164,1,resources/Slide048.BMP,4COU03,test56,j,475119,001,2023-08-22_11h40.28.354,drops_juice,2023.1.2,Win32,60.0060006,615adbcc02818092a39ec310,6482ffc4da57468e3568a8f3,64e4818a67a4a5f23bbc3bf1
space,1,0.9252,0,165,165,165,1,resources/Slide085.BMP,7IEE07,test57,space,475119,001,2023-08-22_11h40.28.354,drops_juice,2023.1.2,Win32,60.0060006,615adbcc02818092a39ec310,6482ffc4da57468e3568a8f3,64e4818a67a4a5f23bbc3bf1
j,1,3.1271,0,166,166,166,1,resources/Slide050.BMP,4COU05,test58,j,475119,001,2023-08-22_11h40.28.354,drops_juice,2023.1.2,Win32,60.0060006,615adbcc02818092a39ec310,6482ffc4da57468e3568a8f3,64e4818a67a4a5f23bbc3bf1
f,0,5.1951,0,167,167,167,1,resources/Slide099.BMP,8IEU10,test59,space,475119,001,2023-08-22_11h40.28.354,drops_juice,2023.1.2,Win32,60.0060006,615adbcc02818092a39ec310,6482ffc4da57468e3568a8f3,64e4818a67a4a5f23bbc3bf1
j,1,1.6368,0,168,168,168,1,resources/Slide039.BMP,3COE05,test60,j,475119,001,2023-08-22_11h40.28.354,drops_juice,2023.1.2,Win32,60.0060006,615adbcc02818092a39ec310,6482ffc4da57468e3568a8f3,64e4818a67a4a5f23bbc3bf1
j,0,1.9009,0,169,169,169,1,resources/Slide072.BMP,6IIU05,test61,f,475119,001,2023-08-22_11h40.28.354,drops_juice,2023.1.2,Win32,60.0060006,615adbcc02818092a39ec310,6482ffc4da57468e3568a8f3,64e4818a67a4a5f23bbc3bf1
j,0,2.0421,0,170,170,170,1,resources/Slide064.BMP,5IIE08,test62,f,475119,001,2023-08-22_11h40.28.354,drops_juice,2023.1.2,Win32,60.0060006,615adbcc02818092a39ec310,6482ffc4da57468e3568a8f3,64e4818a67a4a5f23bbc3bf1
f,0,4.3897,0,171,171,171,1,resources/Slide031.BMP,2IR08,test63,j,475119,001,2023-08-22_11h40.28.354,drops_juice,2023.1.2,Win32,60.0060006,615adbcc02818092a39ec310,6482ffc4da57468e3568a8f3,64e4818a67a4a5f23bbc3bf1
space,0,10.8779,0,172,172,172,1,resources/Slide062.BMP,5IIE06,test64,f,475119,001,2023-08-22_11h40.28.354,drops_juice,2023.1.2,Win32,60.0060006,615adbcc02818092a39ec310,6482ffc4da57468e3568a8f3,64e4818a67a4a5f23bbc3bf1
f,1,4.1588,0,173,173,173,1,resources/Slide049.BMP,4COU04,test65,f,475119,001,2023-08-22_11h40.28.354,drops_juice,2023.1.2,Win32,60.0060006,615adbcc02818092a39ec310,6482ffc4da57468e3568a8f3,64e4818a67a4a5f23bbc3bf1
space,1,0.9639,0,174,174,174,1,resources/Slide083.BMP,7IEE05,test66,space,475119,001,2023-08-22_11h40.28.354,drops_juice,2023.1.2,Win32,60.0060006,615adbcc02818092a39ec310,6482ffc4da57468e3568a8f3,64e4818a67a4a5f23bbc3bf1
f,0,4.9861,0,175,175,175,1,resources/Slide059.BMP,5IIE03,test67,j,475119,001,2023-08-22_11h40.28.354,drops_juice,2023.1.2,Win32,60.0060006,615adbcc02818092a39ec310,6482ffc4da57468e3568a8f3,64e4818a67a4a5f23bbc3bf1
f,1,2.9112,0,176,176,176,1,resources/Slide051.BMP,4COU06,test68,f,475119,001,2023-08-22_11h40.28.354,drops_juice,2023.1.2,Win32,60.0060006,615adbcc02818092a39ec310,6482ffc4da57468e3568a8f3,64e4818a67a4a5f23bbc3bf1
f,0,3.1928,0,177,177,177,1,resources/Slide097.BMP,8IEU08,test69,space,475119,001,2023-08-22_11h40.28.354,drops_juice,2023.1.2,Win32,60.0060006,615adbcc02818092a39ec310,6482ffc4da57468e3568a8f3,64e4818a67a4a5f23bbc3bf1
space,0,2.1482,0,178,178,178,1,resources/Slide020.BMP,1DR08,test70,f,475119,001,2023-08-22_11h40.28.354,drops_juice,2023.1.2,Win32,60.0060006,615adbcc02818092a39ec310,6482ffc4da57468e3568a8f3,64e4818a67a4a5f23bbc3bf1
j,0,4.1406,0,179,179,179,1,resources/Slide098.BMP,8IEU09,test71,space,475119,001,2023-08-22_11h40.28.354,drops_juice,2023.1.2,Win32,60.0060006,615adbcc02818092a39ec310,6482ffc4da57468e3568a8f3,64e4818a67a4a5f23bbc3bf1
space,1,0.8407,0,180,180,180,1,resources/Slide086.BMP,7IEE08,test72,space,475119,001,2023-08-22_11h40.28.354,drops_juice,2023.1.2,Win32,60.0060006,615adbcc02818092a39ec310,6482ffc4da57468e3568a8f3,64e4818a67a4a5f23bbc3bf1
j,1,2.2401,0,181,181,181,1,resources/Slide052.BMP,4COU07,test73,j,475119,001,2023-08-22_11h40.28.354,drops_juice,2023.1.2,Win32,60.0060006,615adbcc02818092a39ec310,6482ffc4da57468e3568a8f3,64e4818a67a4a5f23bbc3bf1
space,0,5.1694,0,182,182,182,1,resources/Slide063.BMP,5IIE07,test74,j,475119,001,2023-08-22_11h40.28.354,drops_juice,2023.1.2,Win32,60.0060006,615adbcc02818092a39ec310,6482ffc4da57468e3568a8f3,64e4818a67a4a5f23bbc3bf1
f,1,5.31,0,183,183,183,1,resources/Slide042.BMP,3COE08,test75,f,475119,001,2023-08-22_11h40.28.354,drops_juice,2023.1.2,Win32,60.0060006,615adbcc02818092a39ec310,6482ffc4da57468e3568a8f3,64e4818a67a4a5f23bbc3bf1
f,0,4.1653,0,184,184,184,1,resources/Slide075.BMP,6IIU08,test76,j,475119,001,2023-08-22_11h40.28.354,drops_juice,2023.1.2,Win32,60.0060006,615adbcc02818092a39ec310,6482ffc4da57468e3568a8f3,64e4818a67a4a5f23bbc3bf1
j,0,3.5604,0,185,185,185,1,resources/Slide096.BMP,8IEU07,test77,space,475119,001,2023-08-22_11h40.28.354,drops_juice,2023.1.2,Win32,60.0060006,615adbcc02818092a39ec310,6482ffc4da57468e3568a8f3,64e4818a67a4a5f23bbc3bf1
f,1,1.012,0,186,186,186,1,resources/Slide053.BMP,4COU08,test78,f,475119,001,2023-08-22_11h40.28.354,drops_juice,2023.1.2,Win32,60.0060006,615adbcc02818092a39ec310,6482ffc4da57468e3568a8f3,64e4818a67a4a5f23bbc3bf1
space,0,1.0503,0,187,187,187,1,resources/Slide019.BMP,1DR07,test79,j,475119,001,2023-08-22_11h40.28.354,drops_juice,2023.1.2,Win32,60.0060006,615adbcc02818092a39ec310,6482ffc4da57468e3568a8f3,64e4818a67a4a5f23bbc3bf1
j,0,2.4642,0,188,188,188,1,resources/Slide074.BMP,6IIU07,test80,f,475119,001,2023-08-22_11h40.28.354,drops_juice,2023.1.2,Win32,60.0060006,615adbcc02818092a39ec310,6482ffc4da57468e3568a8f3,64e4818a67a4a5f23bbc3bf1
f,0,1.2417,0,189,189,189,1,resources/Slide061.BMP,5IIE05,test81,j,475119,001,2023-08-22_11h40.28.354,drops_juice,2023.1.2,Win32,60.0060006,615adbcc02818092a39ec310,6482ffc4da57468e3568a8f3,64e4818a67a4a5f23bbc3bf1
f,0,6.2243,0,190,190,190,1,resources/Slide027.BMP,2IR04,test82,j,475119,001,2023-08-22_11h40.28.354,drops_juice,2023.1.2,Win32,60.0060006,615adbcc02818092a39ec310,6482ffc4da57468e3568a8f3,64e4818a67a4a5f23bbc3bf1
space,0,3.9756,0,191,191,191,1,resources/Slide0102.bmp,ins,end of test,,475119,001,2023-08-22_11h40.28.354,drops_juice,2023.1.2,Win32,60.0060006,615adbcc02818092a39ec310,6482ffc4da57468e3568a8f3,64e4818a67a4a5f23bbc3bf1
